* Sea-Bird SBE19Plus V2+ Data File:
* FileName = c:\velocity\CATFILES\\2016_223_005846.HEX
* Software Version 15.13(r5684)
* Temperature SN = 6122
* Conductivity SN = 6122
* System UpLoad Time = Aug 09 2016 17:12:31
* DS
* SBE 19plus V 2.5.2  SERIAL NO. 6122    10 Aug 2016 01:12:39
* vbatt = 12.5, vlith =  8.0, ioper =  62.4 ma, ipump =  41.1 ma,
* iext01 =   0.4 ma, iext2345 =   0.9 ma
* status = not logging
* number of scans to average = 1
* samples = 2764, free = 2858024, casts = 1
* mode = profile, minimum cond freq = 3023, pump delay = 60 sec
* autorun = no, ignore magnetic switch = no
* battery type = alkaline, battery cutoff =  7.5 volts
* pressure sensor = strain gauge, range = 870.0
* SBE 38 = no, WETLABS = no, OPTODE = no, SBE63 = no, Gas Tension Device = no
* Ext Volt 0 = yes, Ext Volt 1 = yes
* Ext Volt 2 = yes, Ext Volt 3 = yes
* Ext Volt 4 = yes, Ext Volt 5 = yes
* echo characters = yes
* output format = raw HEX
* S>* DCal
* SBE 19plus V 2.5.2  SERIAL NO. 6122    10 Aug 2016 01:14:17
* temperature:  20-Jan-16
*     TA0 = 1.300639e-03
*     TA1 = 2.550763e-04
*     TA2 = 3.093679e-07
*     TA3 = 1.244789e-07
*     TOFFSET = 0.000000e+00
* conductivity:  20-Jan-16
*     G = -9.961959e-01
*     H = 1.575116e-01
*     I = -5.951966e-04
*     J = 7.104324e-05
*     CPCOR = -9.570000e-08
*     CTCOR = 3.250000e-06
*     CSLOPE = 1.000000e+00
* pressure S/N = 2752080, range = 870 psia:  18-Jan-16
*     PA0 = -1.742711e-01
*     PA1 = 2.636137e-03
*     PA2 = 2.064739e-11
*     PTCA0 = 5.243847e+05
*     PTCA1 = -2.217547e+00
*     PTCA2 = -4.412591e-02
*     PTCB0 = 2.507825e+01
*     PTCB1 = -5.500000e-04
*     PTCB2 = 0.000000e+00
*     PTEMPA0 = -6.244149e+01
*     PTEMPA1 = 5.492555e+01
*     PTEMPA2 = -6.453163e-01
*     POFFSET = 0.000000e+00
* volt 0: offset = -5.001895e-02, slope = 1.247694e+00
* volt 1: offset = -4.973263e-02, slope = 1.249744e+00
* volt 2: offset = -4.923158e-02, slope = 1.248809e+00
* volt 3: offset = -5.038421e-02, slope = 1.247580e+00
* volt 4: offset = -4.960526e-02, slope = 1.248302e+00
* volt 5: offset = -4.888000e-02, slope = 1.246972e+00
*     EXTFREQSF = 9.999943e-01
* S>* cast   1 10 Aug 2016 00:58:46 samples 1 to 2764, avg = 1, stop = mag switch
# nquan = 5                                 
# nvalues = 1589                        
# units = specified
# name 0 = prdM: Pressure, Strain Gauge [db]
# name 1 = tv290C: Temperature [ITS-90, deg C]
# name 2 = c0S/m: Conductivity [S/m]
# name 3 = sal00: Salinity, Practical [PSU]
# name 4 = flag: flag
# span 0 =      0.001,    174.053       
# span 1 =     6.0468,    13.3014       
# span 2 =  -0.005462,   3.672212       
# span 3 =     0.0000,    32.8214       
# span 4 = 0.0000e+00, 0.0000e+00       
# interval = seconds: 0.25
# start_time = Aug 09 2016 17:12:31 [System UpLoad Time]
# bad_flag = -9.990e-29
# <Sensors count="9" >
#   <sensor Channel="1" >
#     <!-- Count, Temperature -->
#     <TemperatureSensor SensorID="58" >
#       <SerialNumber>6122</SerialNumber>
#       <CalibrationDate>20-Jan-16</CalibrationDate>
#       <A0>1.30063899e-003</A0>
#       <A1>2.55076327e-004</A1>
#       <A2>3.09367852e-007</A2>
#       <A3>1.24478898e-007</A3>
#       <Slope>1.00000000</Slope>
#       <Offset>0.0000</Offset>
#     </TemperatureSensor>
#   </sensor>
#   <sensor Channel="2" >
#     <!-- Frequency 0, Conductivity -->
#     <ConductivitySensor SensorID="3" >
#       <SerialNumber>6122</SerialNumber>
#       <CalibrationDate>20-Jan-16</CalibrationDate>
#       <UseG_J>1</UseG_J>
#       <!-- Cell const and series R are applicable only for wide range sensors. -->
#       <SeriesR>0.0000</SeriesR>
#       <CellConst>2000.0000</CellConst>
#       <ConductivityType>0</ConductivityType>
#       <Coefficients equation="0" >
#         <A>0.00000000e+000</A>
#         <B>0.00000000e+000</B>
#         <C>0.00000000e+000</C>
#         <D>0.00000000e+000</D>
#         <M>0.0</M>
#         <CPcor>-9.57000000e-008</CPcor>
#       </Coefficients>
#       <Coefficients equation="1" >
#         <G>-9.96195945e-001</G>
#         <H>1.57511597e-001</H>
#         <I>-5.95196631e-004</I>
#         <J>7.10432440e-005</J>
#         <CPcor>-9.57000000e-008</CPcor>
#         <CTcor>3.2500e-006</CTcor>
#         <!-- WBOTC not applicable unless ConductivityType = 1. -->
#         <WBOTC>0.00000000e+000</WBOTC>
#       </Coefficients>
#       <Slope>1.00000000</Slope>
#       <Offset>0.00000</Offset>
#     </ConductivitySensor>
#   </sensor>
#   <sensor Channel="3" >
#     <!-- Count, Pressure, Strain Gauge -->
#     <PressureSensor SensorID="46" >
#       <SerialNumber>6122</SerialNumber>
#       <CalibrationDate>18-Jan-16</CalibrationDate>
#       <PA0>-1.74271148e-001</PA0>
#       <PA1>2.63613713e-003</PA1>
#       <PA2>2.06473926e-011</PA2>
#       <PTEMPA0>-6.24414938e+001</PTEMPA0>
#       <PTEMPA1>5.49255526e+001</PTEMPA1>
#       <PTEMPA2>-6.45316310e-001</PTEMPA2>
#       <PTCA0>5.24384558e+005</PTCA0>
#       <PTCA1>-2.21754743e+000</PTCA1>
#       <PTCA2>-4.41259050e-002</PTCA2>
#       <PTCB0>2.50782500e+001</PTCB0>
#       <PTCB1>-5.50000000e-004</PTCB1>
#       <PTCB2>0.00000000e+000</PTCB2>
#       <Offset>0.000000</Offset>
#     </PressureSensor>
#   </sensor>
#   <sensor Channel="4" >
#     <!-- A/D voltage 0, Free -->
#   </sensor>
#   <sensor Channel="5" >
#     <!-- A/D voltage 1, Free -->
#   </sensor>
#   <sensor Channel="6" >
#     <!-- A/D voltage 2, Free -->
#   </sensor>
#   <sensor Channel="7" >
#     <!-- A/D voltage 3, Free -->
#   </sensor>
#   <sensor Channel="8" >
#     <!-- A/D voltage 4, Free -->
#   </sensor>
#   <sensor Channel="9" >
#     <!-- A/D voltage 5, Free -->
#   </sensor>
# </Sensors>
# datcnv_date = Jan 05 2017 09:51:29, 7.26.6.28 [datcnv_vars = 3]
# datcnv_in = G:\Habitat\RESEARCH PROJECTS\FISHPAC (2016)\Data\Seacat CTD\CAT_Files\S220\2016-222\2016_223_005846.HEX G:\Habitat\RESEARCH PROJECTS\FISHPAC (2016)\Data\Seacat CTD\CAT_Files\S220\Test Config\SBE19plusV2_6122.xmlcon
# datcnv_skipover = 0
# alignctd_date = Jan 05 2017 10:10:01, 7.26.6.28
# alignctd_in = G:\Habitat\RESEARCH PROJECTS\FISHPAC (2016)\Data\Seacat CTD\CAT_Files\S220\2016-222\Reprocessed\2016_223_005846Reprocessed.cnv
# alignctd_adv = tv290C 0.500                                                                                                                                                                                                        
# alignctd_date = Jan 05 2017 10:20:13, 7.26.6.28
# alignctd_in = G:\Habitat\RESEARCH PROJECTS\FISHPAC (2016)\Data\Seacat CTD\CAT_Files\S220\2016-222\Reprocessed\2016_223_005846Reprocessed.cnv
# alignctd_adv = tv290C 0.100                                                                                                                                                                                                        
# alignctd_date = Jan 05 2017 10:22:43, 7.26.6.28
# alignctd_in = G:\Habitat\RESEARCH PROJECTS\FISHPAC (2016)\Data\Seacat CTD\CAT_Files\S220\2016-222\Reprocessed\2016_223_005846Reprocessed.cnv
# alignctd_adv = tv290C -0.500                                                                                                                                                                                                       
# alignctd_date = Jan 05 2017 10:36:28, 7.26.6.28
# alignctd_in = G:\Habitat\RESEARCH PROJECTS\FISHPAC (2016)\Data\Seacat CTD\CAT_Files\S220\2016-222\Reprocessed\2016_223_005846Reprocessed.cnv
# alignctd_adv = tv290C 0.500                                                                                                                                                                                                        
# alignctd_date = Jan 05 2017 11:52:13, 7.26.6.28
# alignctd_in = G:\Habitat\RESEARCH PROJECTS\FISHPAC (2016)\Data\Seacat CTD\CAT_Files\S220\2016-222\Reprocessed\2016_223_005846Reprocessed.cnv
# alignctd_adv = tv290C 0.500, c0S/m 0.300                                                                                                                                                                                           
# alignctd_date = Jan 05 2017 11:54:12, 7.26.6.28
# alignctd_in = G:\Habitat\RESEARCH PROJECTS\FISHPAC (2016)\Data\Seacat CTD\CAT_Files\S220\2016-222\Reprocessed\2016_223_005846Reprocessed.cnv
# alignctd_adv = tv290C 1.000                                                                                                                                                                                                        
# alignctd_date = Jan 05 2017 11:55:33, 7.26.6.28
# alignctd_in = G:\Habitat\RESEARCH PROJECTS\FISHPAC (2016)\Data\Seacat CTD\CAT_Files\S220\2016-222\Reprocessed\2016_223_005846Reprocessed.cnv
# alignctd_adv = tv290C 0.500                                                                                                                                                                                                        
# alignctd_date = Jan 05 2017 11:57:14, 7.26.6.28
# alignctd_in = G:\Habitat\RESEARCH PROJECTS\FISHPAC (2016)\Data\Seacat CTD\CAT_Files\S220\2016-222\Reprocessed\2016_223_005846Reprocessed.cnv
# alignctd_adv = tv290C 0.500, c0S/m 0.500                                                                                                                                                                                           
# alignctd_date = Jan 05 2017 11:58:03, 7.26.6.28
# alignctd_in = G:\Habitat\RESEARCH PROJECTS\FISHPAC (2016)\Data\Seacat CTD\CAT_Files\S220\2016-222\Reprocessed\2016_223_005846Reprocessed.cnv
# alignctd_adv = tv290C 0.500                                                                                                                                                                                                        
# celltm_date = Jan 05 2017 12:20:51, 7.26.6.28
# celltm_in = G:\Habitat\RESEARCH PROJECTS\FISHPAC (2016)\Data\Seacat CTD\CAT_Files\S220\2016-222\Reprocessed\2016_223_005846Reprocessed.cnv
# celltm_alpha = 0.0400, 0.0000
# celltm_tau = 8.0000, 0.0000
# celltm_temp_sensor_use_for_cond = primary, 
# Derive_date = Jan 05 2017 12:34:58, 7.26.6.28 [derive_vars = 1]
# Derive_in = G:\Habitat\RESEARCH PROJECTS\FISHPAC (2016)\Data\Seacat CTD\CAT_Files\S220\2016-222\Reprocessed\2016_223_005846Reprocessed.cnv G:\Habitat\RESEARCH PROJECTS\FISHPAC (2016)\Data\Seacat CTD\CAT_Files\S220\Test Config\SBE19plusV2_6122.xmlcon
# file_type = ascii
*END*
      0.008    13.1383   0.000101     0.0069 0.0000e+00
      0.008    13.1302   0.000060     0.0068 0.0000e+00
      0.010    13.1241   0.000042     0.0068 0.0000e+00
      0.006    13.1199   0.000018     0.0068 0.0000e+00
      0.008    13.1177   0.000021     0.0068 0.0000e+00
      0.008    13.1187   0.000021     0.0068 0.0000e+00
      0.004    13.1243   0.000041     0.0068 0.0000e+00
      0.010    13.1326   0.000086     0.0068 0.0000e+00
      0.006    13.1418   0.000118     0.0069 0.0000e+00
      0.006    13.1501   0.000143     0.0070 0.0000e+00
      0.006    13.1543   0.000157     0.0070 0.0000e+00
      0.008    13.1533   0.000146     0.0070 0.0000e+00
      0.006    13.1502   0.000138     0.0070 0.0000e+00
      0.008    13.1471   0.000124     0.0069 0.0000e+00
      0.006    13.1467   0.000121     0.0069 0.0000e+00
      0.008    13.1490   0.000137     0.0070 0.0000e+00
      0.010    13.1544   0.000150     0.0070 0.0000e+00
      0.008    13.1622   0.000185     0.0071 0.0000e+00
      0.004    13.1673   0.000206     0.0072 0.0000e+00
      0.006    13.1652   0.000190     0.0072 0.0000e+00
      0.003    13.1602   0.000171     0.0071 0.0000e+00
      0.010    13.1581   0.000148     0.0070 0.0000e+00
      0.010    13.1591   0.000159     0.0071 0.0000e+00
      0.004    13.1640   0.000177     0.0071 0.0000e+00
      0.008    13.1741   0.000211     0.0072 0.0000e+00
      0.006    13.1852   0.000250     0.0074 0.0000e+00
      0.004    13.1948   0.000276     0.0075 0.0000e+00
      0.008    13.2020   0.000302     0.0076 0.0000e+00
      0.006    13.2078   0.000308     0.0076 0.0000e+00
      0.008    13.2125   0.000324     0.0077 0.0000e+00
      0.006    13.2125   0.000321     0.0077 0.0000e+00
      0.008    13.2102   0.000295     0.0076 0.0000e+00
      0.010    13.2095   0.000296     0.0076 0.0000e+00
      0.008    13.2124   0.000301     0.0076 0.0000e+00
      0.008    13.2170   0.000313     0.0076 0.0000e+00
      0.008    13.2220   0.000327     0.0077 0.0000e+00
      0.003    13.2261   0.000335     0.0077 0.0000e+00
      0.004    13.2311   0.000349     0.0078 0.0000e+00
      0.006    13.2358   0.000374     0.0079 0.0000e+00
      0.004    13.2406   0.000366     0.0079 0.0000e+00
      0.006    13.2455   0.000370     0.0079 0.0000e+00
      0.008    13.2485   0.000380     0.0079 0.0000e+00
      0.008    13.2519   0.000389     0.0080 0.0000e+00
      0.006    13.2562   0.000390     0.0080 0.0000e+00
      0.006    13.2598   0.000396     0.0080 0.0000e+00
      0.006    13.2631   0.000398     0.0080 0.0000e+00
      0.006    13.2660   0.000400     0.0080 0.0000e+00
      0.008    13.2688   0.000396     0.0080 0.0000e+00
      0.004    13.2706   0.000400     0.0080 0.0000e+00
      0.004    13.2707   0.000390     0.0080 0.0000e+00
      0.004    13.2699   0.000376     0.0079 0.0000e+00
      0.006    13.2704   0.000369     0.0079 0.0000e+00
      0.006    13.2723   0.000364     0.0079 0.0000e+00
      0.004    13.2752   0.000374     0.0079 0.0000e+00
      0.004    13.2784   0.000378     0.0079 0.0000e+00
      0.004    13.2822   0.000387     0.0080 0.0000e+00
      0.004    13.2849   0.000380     0.0079 0.0000e+00
      0.001    13.2863   0.000380     0.0079 0.0000e+00
      0.006    13.2889   0.000379     0.0079 0.0000e+00
      0.004    13.2912   0.000379     0.0079 0.0000e+00
      0.004    13.2929   0.000377     0.0079 0.0000e+00
      0.006    13.2943   0.000373     0.0079 0.0000e+00
      0.008    13.2949   0.000368     0.0079 0.0000e+00
      0.004    13.2953   0.000362     0.0079 0.0000e+00
      0.003    13.2956   0.000354     0.0078 0.0000e+00
      0.004    13.2967   0.000352     0.0078 0.0000e+00
      0.006    13.2991   0.000354     0.0078 0.0000e+00
      0.004    13.3012   0.000353     0.0078 0.0000e+00
      0.006    13.3014   0.000344     0.0078 0.0000e+00
      0.006    13.3000   0.000329     0.0077 0.0000e+00
      0.008    13.2999   0.000316     0.0077 0.0000e+00
      0.010    13.2919   0.000288     0.0076 0.0000e+00
      0.004    13.0914  -0.000477     0.0000 0.0000e+00
      0.006    12.5725  -0.002412     0.0000 0.0000e+00
      0.004    12.0762  -0.004196     0.0000 0.0000e+00
      0.008    11.8014  -0.005091     0.0000 0.0000e+00
      0.004    11.6710  -0.005420     0.0000 0.0000e+00
      0.004    11.6152  -0.005462     0.0000 0.0000e+00
      0.006    11.5980  -0.005348     0.0000 0.0000e+00
      0.006    11.6024  -0.005175     0.0000 0.0000e+00
      0.004    11.6193  -0.004945     0.0000 0.0000e+00
      0.008    11.6422  -0.004704     0.0000 0.0000e+00
      0.008    11.6597   0.694877     5.2500 0.0000e+00
      0.006    11.6631   3.512728    30.5647 0.0000e+00
      0.008    11.6527   3.599241    31.4106 0.0000e+00
      0.008    11.6349   3.624422    31.6701 0.0000e+00
      0.206    11.6160   3.638724    31.8251 0.0000e+00
      0.548    11.5981   3.647213    31.9230 0.0000e+00
      0.872    11.5844   3.651080    31.9723 0.0000e+00
      1.130    11.5792   3.651125    31.9771 0.0000e+00
      1.306    11.5779   3.647663    31.9444 0.0000e+00
      1.444    11.5748   3.646171    31.9325 0.0000e+00
      1.528    11.5765   3.622788    31.7035 0.0000e+00
      1.550    11.5946   3.649119    31.9441 0.0000e+00
      1.455    11.6244   3.658764    32.0123 0.0000e+00
      1.281    11.6461   3.637709    31.7890 0.0000e+00
      1.083    11.6591   3.607581    31.4856 0.0000e+00
      0.879    11.6609   3.643433    31.8321 0.0000e+00
      0.737    11.6458   3.641940    31.8306 0.0000e+00
      0.695    11.6216   3.653827    31.9670 0.0000e+00
      0.753    11.6015   3.657205    32.0172 0.0000e+00
      0.866    11.5900   3.659434    32.0488 0.0000e+00
      0.992    11.5851   3.661902    32.0770 0.0000e+00
      1.123    11.5857   3.661005    32.0677 0.0000e+00
      1.264    11.5946   3.660989    32.0598 0.0000e+00
      1.401    11.6062   3.662373    32.0632 0.0000e+00
      1.506    11.6126   3.664833    32.0815 0.0000e+00
      1.575    11.6098   3.666074    32.0960 0.0000e+00
      1.612    11.6021   3.661758    32.0607 0.0000e+00
      1.619    11.5962   3.655405    32.0039 0.0000e+00
      1.608    11.5917   3.654154    31.9956 0.0000e+00
      1.597    11.5887   3.656469    32.0207 0.0000e+00
      1.612    11.5887   3.663016    32.0845 0.0000e+00
      1.652    11.5890   3.665101    32.1045 0.0000e+00
      1.706    11.5873   3.666627    32.1209 0.0000e+00
      1.748    11.5865   3.667342    32.1285 0.0000e+00
      1.770    11.5929   3.665796    32.1079 0.0000e+00
      1.783    11.6119   3.662973    32.0639 0.0000e+00
      1.779    11.6329   3.659699    32.0139 0.0000e+00
      1.763    11.6453   3.656513    31.9723 0.0000e+00
      1.746    11.6501   3.655217    31.9555 0.0000e+00
      1.746    11.6529   3.655129    31.9523 0.0000e+00
      1.781    11.6532   3.656756    31.9678 0.0000e+00
      1.844    11.6506   3.659135    31.9931 0.0000e+00
      1.946    11.6497   3.660422    32.0064 0.0000e+00
      2.043    11.6508   3.663949    32.0397 0.0000e+00
      2.141    11.6459   3.666565    32.0693 0.0000e+00
      2.241    11.6375   3.667694    32.0875 0.0000e+00
      2.333    11.6349   3.668561    32.0982 0.0000e+00
      2.397    11.6364   3.668510    32.0964 0.0000e+00
      2.432    11.6350   3.666730    32.0802 0.0000e+00
      2.457    11.6263   3.666692    32.0874 0.0000e+00
      2.474    11.6127   3.669206    32.1236 0.0000e+00
      2.492    11.6002   3.670671    32.1487 0.0000e+00
      2.504    11.5912   3.671150    32.1612 0.0000e+00
      2.499    11.5828   3.671241    32.1694 0.0000e+00
      2.488    11.5748   3.670222    32.1664 0.0000e+00
      2.474    11.5692   3.669248    32.1618 0.0000e+00
      2.443    11.5655   3.670206    32.1743 0.0000e+00
      2.403    11.5624   3.671674    32.1914 0.0000e+00
      2.343    11.5594   3.672212    32.1992 0.0000e+00
      2.266    11.5572   3.669389    32.1737 0.0000e+00
      2.194    11.5565   3.664818    32.1297 0.0000e+00
      2.106    11.5600   3.659574    32.0756 0.0000e+00
      2.024    11.5722   3.655620    32.0266 0.0000e+00
      1.955    11.5889   3.653651    31.9930 0.0000e+00
      1.917    11.5998   3.652917    31.9765 0.0000e+00
      1.917    11.6029   3.651848    31.9634 0.0000e+00
      1.955    11.5980   3.651762    31.9667 0.0000e+00
      2.033    11.5890   3.651616    31.9731 0.0000e+00
      2.172    11.5797   3.651779    31.9826 0.0000e+00
      2.326    11.5713   3.651888    31.9909 0.0000e+00
      2.503    11.5652   3.653213    32.0090 0.0000e+00
      2.646    11.5608   3.656398    32.0437 0.0000e+00
      2.735    11.5580   3.656594    32.0480 0.0000e+00
      2.775    11.5573   3.656540    32.0481 0.0000e+00
      2.759    11.5584   3.657157    32.0532 0.0000e+00
      2.699    11.5619   3.657371    32.0523 0.0000e+00
      2.588    11.5740   3.656325    32.0316 0.0000e+00
      2.433    11.5932   3.654202    31.9944 0.0000e+00
      2.253    11.6094   3.652759    31.9665 0.0000e+00
      2.093    11.6195   3.652163    31.9521 0.0000e+00
      1.997    11.6218   3.651771    31.9463 0.0000e+00
      1.970    11.6161   3.651624    31.9498 0.0000e+00
      1.997    11.6046   3.651717    31.9606 0.0000e+00
      2.061    11.5929   3.652352    31.9768 0.0000e+00
      2.148    11.5832   3.654345    32.0046 0.0000e+00
      2.235    11.5764   3.657546    32.0416 0.0000e+00
      2.315    11.5738   3.658069    32.0489 0.0000e+00
      2.368    11.5762   3.658461    32.0506 0.0000e+00
      2.393    11.5879   3.658687    32.0427 0.0000e+00
      2.392    11.6080   3.659145    32.0298 0.0000e+00
      2.359    11.6247   3.659191    32.0158 0.0000e+00
      2.308    11.6351   3.658052    31.9958 0.0000e+00
      2.246    11.6402   3.656489    31.9762 0.0000e+00
      2.208    11.6417   3.654275    31.9534 0.0000e+00
      2.202    11.6423   3.653293    31.9434 0.0000e+00
      2.241    11.6418   3.653471    31.9455 0.0000e+00
      2.312    11.6357   3.655037    31.9660 0.0000e+00
      2.404    11.6210   3.658025    32.0077 0.0000e+00
      2.492    11.6036   3.658463    32.0269 0.0000e+00
      2.557    11.5868   3.658501    32.0418 0.0000e+00
      2.606    11.5729   3.658056    32.0495 0.0000e+00
      2.630    11.5632   3.657752    32.0549 0.0000e+00
      2.623    11.5584   3.657901    32.0605 0.0000e+00
      2.575    11.5575   3.658218    32.0644 0.0000e+00
      2.513    11.5582   3.658809    32.0696 0.0000e+00
      2.415    11.5622   3.658910    32.0671 0.0000e+00
      2.302    11.5715   3.658242    32.0526 0.0000e+00
      2.175    11.5830   3.656606    32.0268 0.0000e+00
      2.050    11.5932   3.653539    31.9881 0.0000e+00
      1.953    11.5992   3.652263    31.9706 0.0000e+00
      1.917    11.6002   3.651701    31.9643 0.0000e+00
      1.930    11.5981   3.651589    31.9650 0.0000e+00
      1.995    11.5934   3.651993    31.9729 0.0000e+00
      2.086    11.5870   3.653805    31.9961 0.0000e+00
      2.179    11.5826   3.656919    32.0302 0.0000e+00
      2.255    11.5824   3.657763    32.0385 0.0000e+00
      2.317    11.5835   3.658599    32.0457 0.0000e+00
      2.364    11.5868   3.659108    32.0478 0.0000e+00
      2.390    11.5979   3.659479    32.0418 0.0000e+00
      2.402    11.6130   3.659569    32.0296 0.0000e+00
      2.404    11.6259   3.659151    32.0144 0.0000e+00
      2.400    11.6340   3.658296    31.9991 0.0000e+00
      2.397    11.6374   3.657526    31.9887 0.0000e+00
      2.397    11.6354   3.657162    31.9868 0.0000e+00
      2.408    11.6260   3.657280    31.9961 0.0000e+00
      2.431    11.6111   3.658473    32.0206 0.0000e+00
      2.466    11.5961   3.660139    32.0497 0.0000e+00
      2.497    11.5835   3.660341    32.0626 0.0000e+00
      2.513    11.5743   3.660657    32.0736 0.0000e+00
      2.513    11.5697   3.660795    32.0789 0.0000e+00
      2.495    11.5677   3.660956    32.0823 0.0000e+00
      2.457    11.5662   3.661224    32.0862 0.0000e+00
      2.400    11.5692   3.661353    32.0849 0.0000e+00
      2.331    11.5782   3.660762    32.0713 0.0000e+00
      2.253    11.5888   3.659233    32.0473 0.0000e+00
      2.188    11.5955   3.657003    32.0198 0.0000e+00
      2.137    11.5947   3.654303    31.9943 0.0000e+00
      2.115    11.5878   3.652398    31.9817 0.0000e+00
      2.117    11.5802   3.651730    31.9817 0.0000e+00
      2.155    11.5746   3.652431    31.9934 0.0000e+00
      2.208    11.5720   3.654928    32.0199 0.0000e+00
      2.268    11.5718   3.657565    32.0458 0.0000e+00
      2.317    11.5713   3.658201    32.0524 0.0000e+00
      2.339    11.5720   3.659029    32.0598 0.0000e+00
      2.337    11.5766   3.659016    32.0557 0.0000e+00
      2.324    11.5825   3.657824    32.0390 0.0000e+00
      2.293    11.5859   3.655616    32.0146 0.0000e+00
      2.266    11.5848   3.653411    31.9941 0.0000e+00
      2.248    11.5809   3.652208    31.9857 0.0000e+00
      2.253    11.5762   3.652131    31.9890 0.0000e+00
      2.279    11.5725   3.652749    31.9982 0.0000e+00
      2.313    11.5696   3.654448    32.0173 0.0000e+00
      2.339    11.5676   3.656614    32.0401 0.0000e+00
      2.362    11.5662   3.657675    32.0516 0.0000e+00
      2.377    11.5652   3.658695    32.0624 0.0000e+00
      2.384    11.5641   3.658510    32.0616 0.0000e+00
      2.388    11.5625   3.657196    32.0502 0.0000e+00
      2.382    11.5605   3.655893    32.0392 0.0000e+00
      2.379    11.5587   3.654906    32.0311 0.0000e+00
      2.362    11.5582   3.654124    32.0240 0.0000e+00
      2.328    11.5589   3.653203    32.0144 0.0000e+00
      2.293    11.5636   3.652317    32.0017 0.0000e+00
      2.244    11.5786   3.651570    31.9815 0.0000e+00
      2.191    11.5978   3.651066    31.9601 0.0000e+00
      2.146    11.6116   3.650811    31.9457 0.0000e+00
      2.120    11.6200   3.650734    31.9377 0.0000e+00
      2.126    11.6240   3.650713    31.9341 0.0000e+00
      2.164    11.6222   3.650571    31.9342 0.0000e+00
      2.222    11.6122   3.650594    31.9430 0.0000e+00
      2.300    11.5978   3.651161    31.9609 0.0000e+00
      2.386    11.5845   3.653368    31.9939 0.0000e+00
      2.473    11.5742   3.656130    32.0296 0.0000e+00
      2.559    11.5670   3.657280    32.0470 0.0000e+00
      2.619    11.5615   3.656782    32.0469 0.0000e+00
      2.657    11.5573   3.656090    32.0438 0.0000e+00
      2.662    11.5545   3.655798    32.0433 0.0000e+00
      2.631    11.5531   3.655423    32.0409 0.0000e+00
      2.555    11.5532   3.654733    32.0341 0.0000e+00
      2.455    11.5539   3.654398    32.0303 0.0000e+00
      2.324    11.5575   3.652446    32.0082 0.0000e+00
      2.182    11.5661   3.650684    31.9837 0.0000e+00
      2.044    11.5747   3.649968    31.9693 0.0000e+00
      1.922    11.5812   3.649630    31.9605 0.0000e+00
      1.842    11.5854   3.649473    31.9554 0.0000e+00
      1.809    11.5878   3.649332    31.9520 0.0000e+00
      1.829    11.5889   3.649523    31.9529 0.0000e+00
      1.895    11.5888   3.649887    31.9565 0.0000e+00
      1.980    11.5901   3.650787    31.9641 0.0000e+00
      2.080    11.5939   3.652496    31.9774 0.0000e+00
      2.180    11.5976   3.653330    31.9823 0.0000e+00
      2.259    11.5988   3.653751    31.9853 0.0000e+00
      2.319    11.5954   3.653931    31.9900 0.0000e+00
      2.368    11.5872   3.654090    31.9986 0.0000e+00
      2.408    11.5778   3.654240    32.0081 0.0000e+00
      2.449    11.5691   3.654442    32.0176 0.0000e+00
      2.484    11.5618   3.654713    32.0265 0.0000e+00
      2.528    11.5564   3.654708    32.0311 0.0000e+00
      2.571    11.5527   3.654306    32.0304 0.0000e+00
      2.606    11.5502   3.654069    32.0302 0.0000e+00
      2.628    11.5487   3.654462    32.0354 0.0000e+00
      2.622    11.5477   3.654384    32.0355 0.0000e+00
      2.595    11.5469   3.653635    32.0289 0.0000e+00
      2.544    11.5465   3.652478    32.0180 0.0000e+00
      2.466    11.5469   3.650838    32.0017 0.0000e+00
      2.366    11.5478   3.649560    31.9885 0.0000e+00
      2.255    11.5487   3.648837    31.9807 0.0000e+00
      2.135    11.5527   3.648418    31.9732 0.0000e+00
      2.022    11.5615   3.648331    31.9648 0.0000e+00
      1.924    11.5700   3.648424    31.9584 0.0000e+00
      1.859    11.5753   3.648299    31.9527 0.0000e+00
      1.831    11.5779   3.648279    31.9502 0.0000e+00
      1.835    11.5790   3.648484    31.9513 0.0000e+00
      1.895    11.5793   3.648647    31.9526 0.0000e+00
      1.975    11.5791   3.648974    31.9559 0.0000e+00
      2.080    11.5762   3.650162    31.9699 0.0000e+00
      2.202    11.5708   3.651172    31.9844 0.0000e+00
      2.324    11.5657   3.651383    31.9908 0.0000e+00
      2.433    11.5613   3.651217    31.9929 0.0000e+00
      2.531    11.5579   3.651035    31.9940 0.0000e+00
      2.588    11.5554   3.650938    31.9952 0.0000e+00
      2.606    11.5537   3.650942    31.9967 0.0000e+00
      2.591    11.5524   3.651085    31.9993 0.0000e+00
      2.549    11.5514   3.651195    32.0012 0.0000e+00
      2.484    11.5507   3.650960    31.9996 0.0000e+00
      2.398    11.5503   3.650891    31.9993 0.0000e+00
      2.316    11.5501   3.650438    31.9951 0.0000e+00
      2.233    11.5505   3.649629    31.9869 0.0000e+00
      2.158    11.5514   3.649150    31.9814 0.0000e+00
      2.106    11.5522   3.648931    31.9786 0.0000e+00
      2.073    11.5522   3.648838    31.9778 0.0000e+00
      2.078    11.5516   3.648800    31.9779 0.0000e+00
      2.100    11.5509   3.648813    31.9786 0.0000e+00
      2.138    11.5497   3.648882    31.9803 0.0000e+00
      2.186    11.5475   3.648964    31.9830 0.0000e+00
      2.224    11.5451   3.649035    31.9857 0.0000e+00
      2.257    11.5439   3.649168    31.9881 0.0000e+00
      2.280    11.5440   3.649416    31.9904 0.0000e+00
      2.302    11.5447   3.649804    31.9936 0.0000e+00
      2.322    11.5456   3.649870    31.9934 0.0000e+00
      2.335    11.5465   3.649786    31.9918 0.0000e+00
      2.353    11.5472   3.649725    31.9906 0.0000e+00
      2.371    11.5476   3.649774    31.9907 0.0000e+00
      2.391    11.5476   3.650218    31.9950 0.0000e+00
      2.426    11.5480   3.649748    31.9901 0.0000e+00
      2.464    11.5484   3.650560    31.9977 0.0000e+00
      2.499    11.5484   3.651087    32.0028 0.0000e+00
      2.513    11.5478   3.651070    32.0031 0.0000e+00
      2.511    11.5469   3.651258    32.0057 0.0000e+00
      2.491    11.5461   3.651426    32.0081 0.0000e+00
      2.457    11.5453   3.651489    32.0094 0.0000e+00
      2.408    11.5447   3.651590    32.0109 0.0000e+00
      2.351    11.5442   3.651555    32.0110 0.0000e+00
      2.295    11.5441   3.651478    32.0104 0.0000e+00
      2.238    11.5442   3.651500    32.0105 0.0000e+00
      2.182    11.5443   3.651631    32.0118 0.0000e+00
      2.131    11.5442   3.651556    32.0111 0.0000e+00
      2.084    11.5440   3.651474    32.0105 0.0000e+00
      2.057    11.5443   3.651414    32.0097 0.0000e+00
      2.040    11.5449   3.651359    32.0086 0.0000e+00
      2.046    11.5456   3.651272    32.0072 0.0000e+00
      2.080    11.5463   3.651228    32.0061 0.0000e+00
      2.131    11.5468   3.651208    32.0055 0.0000e+00
      2.182    11.5470   3.651224    32.0055 0.0000e+00
      2.229    11.5468   3.651304    32.0064 0.0000e+00
      2.269    11.5463   3.651291    32.0067 0.0000e+00
      2.306    11.5460   3.651232    32.0063 0.0000e+00
      2.329    11.5459   3.651213    32.0062 0.0000e+00
      2.344    11.5463   3.651314    32.0069 0.0000e+00
      2.351    11.5466   3.651363    32.0071 0.0000e+00
      2.369    11.5466   3.651419    32.0076 0.0000e+00
      2.376    11.5464   3.651425    32.0078 0.0000e+00
      2.371    11.5462   3.651232    32.0061 0.0000e+00
      2.360    11.5459   3.651483    32.0089 0.0000e+00
      2.351    11.5453   3.651452    32.0091 0.0000e+00
      2.351    11.5445   3.651417    32.0094 0.0000e+00
      2.356    11.5440   3.651403    32.0097 0.0000e+00
      2.371    11.5442   3.651355    32.0091 0.0000e+00
      2.398    11.5445   3.651390    32.0091 0.0000e+00
      2.413    11.5449   3.651462    32.0095 0.0000e+00
      2.413    11.5452   3.651451    32.0091 0.0000e+00
      2.384    11.5454   3.651394    32.0084 0.0000e+00
      2.329    11.5454   3.651367    32.0082 0.0000e+00
      2.262    11.5452   3.651307    32.0078 0.0000e+00
      2.184    11.5450   3.651255    32.0075 0.0000e+00
      2.120    11.5451   3.651206    32.0069 0.0000e+00
      2.089    11.5455   3.651183    32.0064 0.0000e+00
      2.095    11.5459   3.651296    32.0071 0.0000e+00
      2.138    11.5462   3.651291    32.0068 0.0000e+00
      2.207    11.5464   3.651362    32.0073 0.0000e+00
      2.293    11.5460   3.651353    32.0075 0.0000e+00
      2.369    11.5454   3.651392    32.0084 0.0000e+00
      2.433    11.5450   3.651420    32.0090 0.0000e+00
      2.482    11.5448   3.651360    32.0086 0.0000e+00
      2.507    11.5446   3.651282    32.0080 0.0000e+00
      2.507    11.5446   3.651327    32.0084 0.0000e+00
      2.480    11.5447   3.651387    32.0089 0.0000e+00
      2.424    11.5451   3.651415    32.0089 0.0000e+00
      2.342    11.5455   3.651424    32.0086 0.0000e+00
      2.238    11.5456   3.651392    32.0083 0.0000e+00
      2.131    11.5454   3.650623    32.0010 0.0000e+00
      2.027    11.5451   3.648216    31.9778 0.0000e+00
      1.947    11.5449   3.651230    32.0074 0.0000e+00
      1.902    11.5448   3.651244    32.0077 0.0000e+00
      1.889    11.5448   3.651225    32.0075 0.0000e+00
      1.933    11.5449   3.651260    32.0077 0.0000e+00
      2.042    11.5450   3.651301    32.0080 0.0000e+00
      2.174    11.5450   3.651348    32.0084 0.0000e+00
      2.311    11.5448   3.651424    32.0092 0.0000e+00
      2.453    11.5449   3.651383    32.0087 0.0000e+00
      2.555    11.5448   3.651355    32.0085 0.0000e+00
      2.616    11.5445   3.651295    32.0081 0.0000e+00
      2.644    11.5442   3.651265    32.0081 0.0000e+00
      2.644    11.5440   3.651327    32.0089 0.0000e+00
      2.622    11.5438   3.651360    32.0094 0.0000e+00
      2.582    11.5439   3.651334    32.0090 0.0000e+00
      2.525    11.5443   3.651321    32.0086 0.0000e+00
      2.458    11.5446   3.651314    32.0083 0.0000e+00
      2.376    11.5446   3.651268    32.0079 0.0000e+00
      2.295    11.5445   3.651322    32.0085 0.0000e+00
      2.236    11.5445   3.651306    32.0084 0.0000e+00
      2.191    11.5448   3.651231    32.0074 0.0000e+00
      2.160    11.5453   3.651194    32.0066 0.0000e+00
      2.142    11.5458   3.651227    32.0065 0.0000e+00
      2.144    11.5458   3.651203    32.0063 0.0000e+00
      2.167    11.5457   3.651227    32.0066 0.0000e+00
      2.209    11.5462   3.651290    32.0068 0.0000e+00
      2.255    11.5468   3.651311    32.0064 0.0000e+00
      2.296    11.5473   3.651287    32.0058 0.0000e+00
      2.324    11.5472   3.651282    32.0058 0.0000e+00
      2.325    11.5470   3.651276    32.0059 0.0000e+00
      2.320    11.5470   3.651330    32.0064 0.0000e+00
      2.300    11.5474   3.651393    32.0067 0.0000e+00
      2.271    11.5481   3.651440    32.0066 0.0000e+00
      2.233    11.5487   3.651391    32.0056 0.0000e+00
      2.193    11.5490   3.651361    32.0051 0.0000e+00
      2.162    11.5486   3.651455    32.0063 0.0000e+00
      2.167    11.5479   3.651485    32.0072 0.0000e+00
      2.198    11.5473   3.651539    32.0083 0.0000e+00
      2.254    11.5466   3.651475    32.0082 0.0000e+00
      2.318    11.5456   3.651443    32.0087 0.0000e+00
      2.369    11.5441   3.651462    32.0102 0.0000e+00
      2.402    11.5420   3.651516    32.0125 0.0000e+00
      2.413    11.5400   3.651615    32.0152 0.0000e+00
      2.407    11.5392   3.651665    32.0164 0.0000e+00
      2.384    11.5392   3.651617    32.0159 0.0000e+00
      2.344    11.5397   3.651593    32.0153 0.0000e+00
      2.300    11.5404   3.651473    32.0135 0.0000e+00
      2.262    11.5405   3.651416    32.0129 0.0000e+00
      2.256    11.5399   3.651442    32.0137 0.0000e+00
      2.285    11.5392   3.651315    32.0130 0.0000e+00
      2.353    11.5389   3.651138    32.0115 0.0000e+00
      2.451    11.5386   3.650971    32.0101 0.0000e+00
      2.551    11.5383   3.650689    32.0076 0.0000e+00
      2.611    11.5372   3.650857    32.0102 0.0000e+00
      2.625    11.5355   3.650826    32.0113 0.0000e+00
      2.598    11.5350   3.650916    32.0127 0.0000e+00
      2.534    11.5362   3.651014    32.0126 0.0000e+00
      2.427    11.5388   3.650952    32.0098 0.0000e+00
      2.293    11.5407   3.650872    32.0074 0.0000e+00
      2.138    11.5416   3.650819    32.0062 0.0000e+00
      1.994    11.5420   3.650810    32.0058 0.0000e+00
      1.920    11.5423   3.650796    32.0055 0.0000e+00
      1.916    11.5427   3.650751    32.0047 0.0000e+00
      1.973    11.5430   3.650636    32.0033 0.0000e+00
      2.056    11.5432   3.650333    32.0001 0.0000e+00
      2.147    11.5432   3.650415    32.0009 0.0000e+00
      2.216    11.5435   3.650669    32.0031 0.0000e+00
      2.278    11.5438   3.651040    32.0064 0.0000e+00
      2.318    11.5441   3.651144    32.0071 0.0000e+00
      2.349    11.5441   3.651097    32.0067 0.0000e+00
      2.369    11.5437   3.651074    32.0068 0.0000e+00
      2.394    11.5432   3.651138    32.0078 0.0000e+00
      2.411    11.5433   3.651131    32.0076 0.0000e+00
      2.420    11.5435   3.651173    32.0079 0.0000e+00
      2.425    11.5436   3.651185    32.0079 0.0000e+00
      2.418    11.5438   3.651187    32.0078 0.0000e+00
      2.398    11.5438   3.651187    32.0078 0.0000e+00
      2.378    11.5437   3.651258    32.0086 0.0000e+00
      2.354    11.5435   3.651288    32.0090 0.0000e+00
      2.338    11.5429   3.651294    32.0096 0.0000e+00
      2.311    11.5419   3.651233    32.0099 0.0000e+00
      2.292    11.5404   3.651136    32.0103 0.0000e+00
      2.278    11.5382   3.651164    32.0124 0.0000e+00
      2.260    11.5358   3.651208    32.0149 0.0000e+00
      2.240    11.5337   3.651196    32.0167 0.0000e+00
      2.205    11.5314   3.651191    32.0186 0.0000e+00
      2.180    11.5300   3.651168    32.0196 0.0000e+00
      2.149    11.5293   3.651152    32.0201 0.0000e+00
      2.138    11.5299   3.651142    32.0195 0.0000e+00
      2.143    11.5307   3.651098    32.0183 0.0000e+00
      2.160    11.5311   3.650845    32.0155 0.0000e+00
      2.187    11.5317   3.650408    32.0107 0.0000e+00
      2.219    11.5321   3.650633    32.0126 0.0000e+00
      2.269    11.5320   3.650360    32.0100 0.0000e+00
      2.316    11.5309   3.650328    32.0106 0.0000e+00
      2.365    11.5291   3.649972    32.0086 0.0000e+00
      2.425    11.5273   3.650043    32.0109 0.0000e+00
      2.490    11.5263   3.650016    32.0114 0.0000e+00
      2.552    11.5258   3.650150    32.0132 0.0000e+00
      2.607    11.5257   3.650245    32.0141 0.0000e+00
      2.640    11.5260   3.650267    32.0141 0.0000e+00
      2.649    11.5270   3.650294    32.0135 0.0000e+00
      2.618    11.5291   3.650341    32.0121 0.0000e+00
      2.554    11.5320   3.650305    32.0093 0.0000e+00
      2.452    11.5348   3.650161    32.0055 0.0000e+00
      2.338    11.5367   3.650002    32.0024 0.0000e+00
      2.209    11.5381   3.649772    31.9990 0.0000e+00
      2.087    11.5392   3.649556    31.9960 0.0000e+00
      1.981    11.5400   3.648905    31.9890 0.0000e+00
      1.905    11.5406   3.649826    31.9975 0.0000e+00
      1.850    11.5410   3.649861    31.9975 0.0000e+00
      1.823    11.5410   3.649945    31.9983 0.0000e+00
      1.825    11.5412   3.649941    31.9981 0.0000e+00
      1.858    11.5414   3.649586    31.9945 0.0000e+00
      1.905    11.5414   3.650647    32.0048 0.0000e+00
      1.985    11.5413   3.650774    32.0061 0.0000e+00
      2.069    11.5411   3.650823    32.0067 0.0000e+00
      2.151    11.5410   3.650943    32.0079 0.0000e+00
      2.243    11.5411   3.650980    32.0081 0.0000e+00
      2.336    11.5410   3.650989    32.0083 0.0000e+00
      2.423    11.5410   3.651046    32.0088 0.0000e+00
      2.492    11.5411   3.651041    32.0086 0.0000e+00
      2.532    11.5413   3.651040    32.0084 0.0000e+00
      2.551    11.5414   3.651101    32.0089 0.0000e+00
      2.538    11.5415   3.651038    32.0082 0.0000e+00
      2.511    11.5418   3.650996    32.0076 0.0000e+00
      2.480    11.5422   3.650981    32.0071 0.0000e+00
      2.447    11.5425   3.650999    32.0070 0.0000e+00
      2.423    11.5425   3.650987    32.0069 0.0000e+00
      2.405    11.5424   3.651002    32.0072 0.0000e+00
      2.394    11.5428   3.651012    32.0069 0.0000e+00
      2.385    11.5436   3.651047    32.0066 0.0000e+00
      2.374    11.5440   3.651036    32.0061 0.0000e+00
      2.361    11.5441   3.651069    32.0064 0.0000e+00
      2.343    11.5439   3.651059    32.0065 0.0000e+00
      2.330    11.5435   3.651089    32.0071 0.0000e+00
      2.312    11.5431   3.651096    32.0075 0.0000e+00
      2.292    11.5428   3.651120    32.0080 0.0000e+00
      2.260    11.5426   3.651069    32.0077 0.0000e+00
      2.214    11.5422   3.651092    32.0083 0.0000e+00
      2.169    11.5420   3.651148    32.0090 0.0000e+00
      2.130    11.5422   3.651234    32.0097 0.0000e+00
      2.101    11.5423   3.651270    32.0100 0.0000e+00
      2.089    11.5422   3.651230    32.0097 0.0000e+00
      2.069    11.5423   3.651171    32.0090 0.0000e+00
      2.061    11.5425   3.651146    32.0086 0.0000e+00
      2.059    11.5426   3.651121    32.0083 0.0000e+00
      2.076    11.5425   3.651087    32.0080 0.0000e+00
      2.112    11.5426   3.651108    32.0082 0.0000e+00
      2.174    11.5419   3.651089    32.0085 0.0000e+00
      2.258    11.5397   3.651044    32.0100 0.0000e+00
      2.350    11.5369   3.651108    32.0130 0.0000e+00
      2.434    11.5354   3.651150    32.0147 0.0000e+00
      2.492    11.5353   3.651020    32.0134 0.0000e+00
      2.527    11.5348   3.651056    32.0142 0.0000e+00
      2.534    11.5347   3.651139    32.0151 0.0000e+00
      2.505    11.5360   3.651119    32.0138 0.0000e+00
      2.443    11.5377   3.651076    32.0119 0.0000e+00
      2.357    11.5397   3.651113    32.0106 0.0000e+00
      2.267    11.5432   3.651043    32.0069 0.0000e+00
      2.168    11.5470   3.650812    32.0014 0.0000e+00
      2.088    11.5492   3.650529    31.9968 0.0000e+00
      2.043    11.5498   3.650432    31.9954 0.0000e+00
      2.027    11.5496   3.650628    31.9975 0.0000e+00
      2.039    11.5496   3.650488    31.9961 0.0000e+00
      2.094    11.5496   3.650426    31.9955 0.0000e+00
      2.179    11.5495   3.650734    31.9985 0.0000e+00
      2.299    11.5496   3.650887    31.9999 0.0000e+00
      2.410    11.5492   3.650997    32.0012 0.0000e+00
      2.523    11.5481   3.651394    32.0060 0.0000e+00
      2.607    11.5467   3.651808    32.0112 0.0000e+00
      2.661    11.5457   3.651828    32.0123 0.0000e+00
      2.681    11.5448   3.651764    32.0124 0.0000e+00
      2.654    11.5432   3.651650    32.0127 0.0000e+00
      2.590    11.5413   3.651678    32.0146 0.0000e+00
      2.488    11.5401   3.651708    32.0160 0.0000e+00
      2.361    11.5398   3.651637    32.0156 0.0000e+00
      2.218    11.5401   3.651677    32.0158 0.0000e+00
      2.072    11.5405   3.651631    32.0151 0.0000e+00
      1.963    11.5408   3.651467    32.0133 0.0000e+00
      1.885    11.5409   3.651315    32.0117 0.0000e+00
      1.854    11.5411   3.651287    32.0113 0.0000e+00
      1.857    11.5411   3.651282    32.0113 0.0000e+00
      1.888    11.5412   3.651063    32.0090 0.0000e+00
      1.948    11.5418   3.650861    32.0065 0.0000e+00
      2.016    11.5423   3.650810    32.0055 0.0000e+00
      2.099    11.5429   3.650853    32.0054 0.0000e+00
      2.196    11.5433   3.650993    32.0064 0.0000e+00
      2.290    11.5436   3.650998    32.0061 0.0000e+00
      2.379    11.5437   3.651023    32.0063 0.0000e+00
      2.461    11.5435   3.651056    32.0067 0.0000e+00
      2.516    11.5434   3.651030    32.0065 0.0000e+00
      2.554    11.5435   3.650993    32.0061 0.0000e+00
      2.567    11.5436   3.651026    32.0063 0.0000e+00
      2.556    11.5431   3.651152    32.0080 0.0000e+00
      2.527    11.5422   3.651159    32.0088 0.0000e+00
      2.468    11.5418   3.651203    32.0096 0.0000e+00
      2.401    11.5417   3.651217    32.0099 0.0000e+00
      2.296    11.5419   3.651239    32.0100 0.0000e+00
      2.177    11.5424   3.651250    32.0097 0.0000e+00
      2.065    11.5431   3.651189    32.0085 0.0000e+00
      1.986    11.5438   3.651150    32.0076 0.0000e+00
      1.970    11.5442   3.651232    32.0080 0.0000e+00
      2.017    11.5445   3.651190    32.0073 0.0000e+00
      2.119    11.5446   3.651152    32.0069 0.0000e+00
      2.221    11.5446   3.650984    32.0052 0.0000e+00
      2.319    11.5445   3.651050    32.0059 0.0000e+00
      2.421    11.5445   3.651083    32.0061 0.0000e+00
      2.508    11.5451   3.651100    32.0058 0.0000e+00
      2.570    11.5462   3.651177    32.0055 0.0000e+00
      2.601    11.5471   3.651251    32.0055 0.0000e+00
      2.594    11.5477   3.651293    32.0053 0.0000e+00
      2.554    11.5481   3.651348    32.0056 0.0000e+00
      2.472    11.5485   3.651340    32.0052 0.0000e+00
      2.354    11.5491   3.651283    32.0041 0.0000e+00
      2.226    11.5495   3.651284    32.0039 0.0000e+00
      2.106    11.5499   3.651285    32.0036 0.0000e+00
      2.019    11.5501   3.651291    32.0035 0.0000e+00
      1.979    11.5504   3.651325    32.0036 0.0000e+00
      1.974    11.5506   3.651490    32.0050 0.0000e+00
      2.006    11.5507   3.651529    32.0053 0.0000e+00
      2.063    11.5511   3.651619    32.0058 0.0000e+00
      2.128    11.5515   3.651624    32.0055 0.0000e+00
      2.185    11.5519   3.651666    32.0055 0.0000e+00
      2.237    11.5522   3.651762    32.0062 0.0000e+00
      2.279    11.5523   3.651757    32.0060 0.0000e+00
      2.306    11.5521   3.651740    32.0060 0.0000e+00
      2.326    11.5511   3.651770    32.0072 0.0000e+00
      2.348    11.5491   3.651790    32.0091 0.0000e+00
      2.374    11.5469   3.651764    32.0107 0.0000e+00
      2.408    11.5455   3.651798    32.0122 0.0000e+00
      2.439    11.5444   3.651859    32.0138 0.0000e+00
      2.466    11.5433   3.651848    32.0146 0.0000e+00
      2.479    11.5419   3.651885    32.0162 0.0000e+00
      2.472    11.5400   3.651895    32.0179 0.0000e+00
      2.457    11.5379   3.651887    32.0197 0.0000e+00
      2.426    11.5363   3.651869    32.0209 0.0000e+00
      2.390    11.5356   3.651759    32.0204 0.0000e+00
      2.350    11.5361   3.651494    32.0174 0.0000e+00
      2.305    11.5377   3.651291    32.0141 0.0000e+00
      2.263    11.5390   3.651247    32.0126 0.0000e+00
      2.217    11.5401   3.651223    32.0114 0.0000e+00
      2.177    11.5410   3.651122    32.0096 0.0000e+00
      2.148    11.5414   3.651018    32.0083 0.0000e+00
      2.143    11.5416   3.650794    32.0059 0.0000e+00
      2.152    11.5415   3.650620    32.0043 0.0000e+00
      2.185    11.5401   3.650524    32.0046 0.0000e+00
      2.226    11.5375   3.650476    32.0064 0.0000e+00
      2.268    11.5350   3.650628    32.0100 0.0000e+00
      2.303    11.5338   3.650871    32.0134 0.0000e+00
      2.323    11.5331   3.650933    32.0146 0.0000e+00
      2.326    11.5320   3.651019    32.0164 0.0000e+00
      2.315    11.5301   3.651021    32.0180 0.0000e+00
      2.275    11.5280   3.650995    32.0196 0.0000e+00
      2.228    11.5263   3.651039    32.0215 0.0000e+00
      2.184    11.5244   3.651012    32.0229 0.0000e+00
      2.157    11.5231   3.650821    32.0222 0.0000e+00
      2.152    11.5236   3.650465    32.0183 0.0000e+00
      2.150    11.5261   3.650261    32.0141 0.0000e+00
      2.161    11.5290   3.650294    32.0120 0.0000e+00
      2.190    11.5307   3.650309    32.0106 0.0000e+00
      2.217    11.5312   3.650203    32.0091 0.0000e+00
      2.243    11.5314   3.649967    32.0067 0.0000e+00
      2.268    11.5317   3.649790    32.0047 0.0000e+00
      2.301    11.5321   3.649695    32.0034 0.0000e+00
      2.343    11.5323   3.649570    32.0020 0.0000e+00
      2.393    11.5322   3.649459    32.0010 0.0000e+00
      2.446    11.5321   3.649660    32.0030 0.0000e+00
      2.495    11.5318   3.649999    32.0065 0.0000e+00
      2.537    11.5310   3.650303    32.0102 0.0000e+00
      2.553    11.5307   3.650350    32.0109 0.0000e+00
      2.550    11.5314   3.650246    32.0093 0.0000e+00
      2.522    11.5319   3.650274    32.0091 0.0000e+00
      2.457    11.5322   3.650294    32.0091 0.0000e+00
      2.368    11.5328   3.650309    32.0087 0.0000e+00
      2.261    11.5338   3.650314    32.0080 0.0000e+00
      2.142    11.5349   3.650284    32.0068 0.0000e+00
      2.033    11.5357   3.650230    32.0056 0.0000e+00
      1.952    11.5364   3.650277    32.0055 0.0000e+00
      1.921    11.5372   3.650163    32.0037 0.0000e+00
      1.948    11.5383   3.650156    32.0027 0.0000e+00
      2.021    11.5391   3.650336    32.0037 0.0000e+00
      2.137    11.5397   3.650287    32.0026 0.0000e+00
      2.253    11.5401   3.650344    32.0028 0.0000e+00
      2.361    11.5402   3.650384    32.0031 0.0000e+00
      2.443    11.5405   3.650526    32.0042 0.0000e+00
      2.492    11.5414   3.650619    32.0043 0.0000e+00
      2.495    11.5424   3.650626    32.0035 0.0000e+00
      2.468    11.5429   3.650671    32.0035 0.0000e+00
      2.401    11.5431   3.650806    32.0047 0.0000e+00
      2.313    11.5432   3.650898    32.0055 0.0000e+00
      2.237    11.5430   3.650910    32.0058 0.0000e+00
      2.193    11.5426   3.650944    32.0065 0.0000e+00
      2.175    11.5422   3.650958    32.0070 0.0000e+00
      2.177    11.5420   3.650958    32.0072 0.0000e+00
      2.190    11.5420   3.650979    32.0074 0.0000e+00
      2.212    11.5418   3.651079    32.0085 0.0000e+00
      2.228    11.5415   3.651200    32.0100 0.0000e+00
      2.237    11.5416   3.651191    32.0098 0.0000e+00
      2.241    11.5415   3.651180    32.0098 0.0000e+00
      2.253    11.5412   3.651178    32.0100 0.0000e+00
      2.270    11.5405   3.651157    32.0104 0.0000e+00
      2.299    11.5397   3.651105    32.0106 0.0000e+00
      2.339    11.5391   3.651080    32.0108 0.0000e+00
      2.375    11.5385   3.651019    32.0107 0.0000e+00
      2.419    11.5383   3.651132    32.0120 0.0000e+00
      2.459    11.5386   3.651078    32.0112 0.0000e+00
      2.486    11.5390   3.651007    32.0101 0.0000e+00
      2.495    11.5399   3.651079    32.0100 0.0000e+00
      2.481    11.5408   3.651074    32.0092 0.0000e+00
      2.450    11.5411   3.651028    32.0085 0.0000e+00
      2.406    11.5411   3.650941    32.0077 0.0000e+00
      2.350    11.5411   3.650816    32.0065 0.0000e+00
      2.293    11.5408   3.650783    32.0065 0.0000e+00
      2.239    11.5404   3.650765    32.0067 0.0000e+00
      2.200    11.5397   3.650768    32.0073 0.0000e+00
      2.180    11.5390   3.650820    32.0084 0.0000e+00
      2.170    11.5383   3.650887    32.0097 0.0000e+00
      2.182    11.5378   3.650956    32.0108 0.0000e+00
      2.202    11.5376   3.651012    32.0115 0.0000e+00
      2.224    11.5378   3.651041    32.0116 0.0000e+00
      2.237    11.5381   3.650994    32.0109 0.0000e+00
      2.231    11.5382   3.650953    32.0104 0.0000e+00
      2.217    11.5385   3.650978    32.0104 0.0000e+00
      2.193    11.5389   3.650930    32.0096 0.0000e+00
      2.149    11.5393   3.650863    32.0086 0.0000e+00
      2.099    11.5396   3.650783    32.0076 0.0000e+00
      2.068    11.5399   3.650772    32.0072 0.0000e+00
      2.077    11.5403   3.650723    32.0064 0.0000e+00
      2.164    11.5408   3.650746    32.0062 0.0000e+00
      2.288    11.5414   3.650791    32.0060 0.0000e+00
      2.437    11.5419   3.650795    32.0056 0.0000e+00
      2.571    11.5421   3.650817    32.0056 0.0000e+00
      2.673    11.5418   3.650866    32.0063 0.0000e+00
      2.735    11.5412   3.650899    32.0071 0.0000e+00
      2.757    11.5409   3.650895    32.0073 0.0000e+00
      2.724    11.5406   3.650939    32.0080 0.0000e+00
      2.644    11.5404   3.650992    32.0087 0.0000e+00
      2.528    11.5404   3.650992    32.0088 0.0000e+00
      2.382    11.5404   3.651008    32.0090 0.0000e+00
      2.231    11.5407   3.651088    32.0096 0.0000e+00
      2.104    11.5412   3.651127    32.0096 0.0000e+00
      1.997    11.5416   3.651110    32.0091 0.0000e+00
      1.935    11.5417   3.651049    32.0084 0.0000e+00
      1.931    11.5419   3.650988    32.0077 0.0000e+00
      1.962    11.5419   3.650954    32.0073 0.0000e+00
      2.026    11.5418   3.650967    32.0075 0.0000e+00
      2.118    11.5418   3.650937    32.0072 0.0000e+00
      2.215    11.5412   3.650967    32.0079 0.0000e+00
      2.302    11.5396   3.650975    32.0094 0.0000e+00
      2.375    11.5372   3.651011    32.0118 0.0000e+00
      2.420    11.5359   3.651064    32.0134 0.0000e+00
      2.438    11.5365   3.651079    32.0130 0.0000e+00
      2.424    11.5376   3.651072    32.0120 0.0000e+00
      2.388    11.5385   3.651102    32.0115 0.0000e+00
      2.348    11.5391   3.651111    32.0111 0.0000e+00
      2.315    11.5394   3.651074    32.0105 0.0000e+00
      2.307    11.5396   3.651075    32.0103 0.0000e+00
      2.326    11.5398   3.651045    32.0099 0.0000e+00
      2.362    11.5394   3.650834    32.0081 0.0000e+00
      2.411    11.5381   3.650478    32.0058 0.0000e+00
      2.466    11.5364   3.650487    32.0073 0.0000e+00
      2.498    11.5351   3.650649    32.0100 0.0000e+00
      2.513    11.5344   3.650834    32.0124 0.0000e+00
      2.507    11.5339   3.650880    32.0133 0.0000e+00
      2.471    11.5348   3.650906    32.0128 0.0000e+00
      2.415    11.5365   3.650898    32.0113 0.0000e+00
      2.340    11.5374   3.650862    32.0102 0.0000e+00
      2.249    11.5378   3.650939    32.0106 0.0000e+00
      2.155    11.5380   3.650894    32.0100 0.0000e+00
      2.064    11.5379   3.650664    32.0079 0.0000e+00
      1.989    11.5379   3.650524    32.0066 0.0000e+00
      1.942    11.5381   3.650420    32.0054 0.0000e+00
      1.942    11.5384   3.650415    32.0051 0.0000e+00
      1.985    11.5385   3.650405    32.0049 0.0000e+00
      2.071    11.5385   3.650595    32.0067 0.0000e+00
      2.187    11.5386   3.650826    32.0088 0.0000e+00
      2.327    11.5386   3.650766    32.0082 0.0000e+00
      2.478    11.5384   3.650781    32.0084 0.0000e+00
      2.602    11.5384   3.650780    32.0084 0.0000e+00
      2.700    11.5386   3.650776    32.0081 0.0000e+00
      2.747    11.5390   3.650792    32.0079 0.0000e+00
      2.742    11.5394   3.650828    32.0079 0.0000e+00
      2.684    11.5397   3.650826    32.0077 0.0000e+00
      2.582    11.5400   3.650845    32.0076 0.0000e+00
      2.447    11.5403   3.650815    32.0071 0.0000e+00
      2.300    11.5404   3.650746    32.0064 0.0000e+00
      2.169    11.5405   3.650329    32.0024 0.0000e+00
      2.080    11.5406   3.650005    31.9991 0.0000e+00
      2.044    11.5402   3.650638    32.0057 0.0000e+00
      2.058    11.5389   3.650849    32.0088 0.0000e+00
      2.089    11.5377   3.650879    32.0102 0.0000e+00
      2.131    11.5369   3.650910    32.0111 0.0000e+00
      2.175    11.5362   3.650909    32.0117 0.0000e+00
      2.216    11.5359   3.650973    32.0126 0.0000e+00
      2.255    11.5358   3.650956    32.0125 0.0000e+00
      2.284    11.5358   3.650978    32.0127 0.0000e+00
      2.309    11.5360   3.650980    32.0125 0.0000e+00
      2.320    11.5361   3.650989    32.0125 0.0000e+00
      2.322    11.5363   3.650971    32.0122 0.0000e+00
      2.314    11.5366   3.650737    32.0096 0.0000e+00
      2.302    11.5367   3.650674    32.0089 0.0000e+00
      2.278    11.5364   3.650619    32.0087 0.0000e+00
      2.262    11.5359   3.650621    32.0091 0.0000e+00
      2.249    11.5354   3.650567    32.0090 0.0000e+00
      2.247    11.5347   3.650647    32.0104 0.0000e+00
      2.264    11.5336   3.650618    32.0111 0.0000e+00
      2.333    11.5323   3.650655    32.0126 0.0000e+00
      2.418    11.5312   3.650606    32.0130 0.0000e+00
      2.516    11.5300   3.650652    32.0144 0.0000e+00
      2.593    11.5287   3.650693    32.0159 0.0000e+00
      2.636    11.5275   3.650680    32.0168 0.0000e+00
      2.644    11.5267   3.650665    32.0174 0.0000e+00
      2.604    11.5262   3.650605    32.0172 0.0000e+00
      2.533    11.5260   3.650567    32.0171 0.0000e+00
      2.440    11.5259   3.650461    32.0162 0.0000e+00
      2.333    11.5260   3.650304    32.0146 0.0000e+00
      2.240    11.5262   3.650234    32.0138 0.0000e+00
      2.154    11.5264   3.650151    32.0128 0.0000e+00
      2.093    11.5264   3.650008    32.0114 0.0000e+00
      2.058    11.5260   3.649898    32.0107 0.0000e+00
      2.049    11.5256   3.649810    32.0102 0.0000e+00
      2.071    11.5256   3.649830    32.0104 0.0000e+00
      2.116    11.5260   3.649753    32.0093 0.0000e+00
      2.169    11.5265   3.649753    32.0088 0.0000e+00
      2.220    11.5267   3.649829    32.0094 0.0000e+00
      2.263    11.5268   3.649833    32.0093 0.0000e+00
      2.302    11.5266   3.649847    32.0096 0.0000e+00
      2.323    11.5263   3.649865    32.0100 0.0000e+00
      2.352    11.5258   3.649873    32.0105 0.0000e+00
      2.383    11.5253   3.649776    32.0100 0.0000e+00
      2.416    11.5254   3.649762    32.0098 0.0000e+00
      2.442    11.5256   3.649776    32.0097 0.0000e+00
      2.443    11.5258   3.649848    32.0103 0.0000e+00
      2.431    11.5259   3.649906    32.0107 0.0000e+00
      2.416    11.5256   3.649879    32.0107 0.0000e+00
      2.382    11.5246   3.649876    32.0116 0.0000e+00
      2.345    11.5225   3.649854    32.0132 0.0000e+00
      2.289    11.5206   3.649781    32.0142 0.0000e+00
      2.238    11.5203   3.649722    32.0139 0.0000e+00
      2.220    11.5207   3.649645    32.0128 0.0000e+00
      2.229    11.5212   3.649754    32.0134 0.0000e+00
      2.247    11.5219   3.649762    32.0129 0.0000e+00
      2.271    11.5231   3.649795    32.0121 0.0000e+00
      2.296    11.5238   3.649828    32.0119 0.0000e+00
      2.318    11.5236   3.649754    32.0113 0.0000e+00
      2.338    11.5232   3.649705    32.0112 0.0000e+00
      2.376    11.5234   3.649336    32.0074 0.0000e+00
      2.472    11.5240   3.649198    32.0055 0.0000e+00
      2.629    11.5242   3.649361    32.0068 0.0000e+00
      2.816    11.5244   3.649278    32.0058 0.0000e+00
      3.014    11.5248   3.648774    32.0004 0.0000e+00
      3.205    11.5252   3.649561    32.0077 0.0000e+00
      3.387    11.5253   3.649716    32.0090 0.0000e+00
      3.563    11.5252   3.649814    32.0100 0.0000e+00
      3.743    11.5252   3.649672    32.0085 0.0000e+00
      3.918    11.5250   3.649610    32.0080 0.0000e+00
      4.094    11.5252   3.649700    32.0087 0.0000e+00
      4.269    11.5259   3.649838    32.0093 0.0000e+00
      4.445    11.5265   3.649826    32.0086 0.0000e+00
      4.642    11.5267   3.649814    32.0082 0.0000e+00
      4.833    11.5268   3.649864    32.0086 0.0000e+00
      5.020    11.5269   3.649905    32.0088 0.0000e+00
      5.196    11.5272   3.649894    32.0084 0.0000e+00
      5.365    11.5272   3.649932    32.0087 0.0000e+00
      5.516    11.5223   3.649856    32.0121 0.0000e+00
      5.673    11.4988   3.649791    32.0317 0.0000e+00
      5.836    11.4605   3.649659    32.0636 0.0000e+00
      6.027    11.4340   3.649694    32.0868 0.0000e+00
      6.231    11.4078   3.649707    32.1096 0.0000e+00
      6.476    11.3609   3.649483    32.1481 0.0000e+00
      6.760    11.2953   3.649289    32.2033 0.0000e+00
      7.075    11.2244   3.649073    32.2630 0.0000e+00
      7.398    11.1700   3.648991    32.3098 0.0000e+00
      7.747    11.1408   3.648946    32.3348 0.0000e+00
      8.100    11.1234   3.648486    32.3455 0.0000e+00
      8.433    11.1073   3.646108    32.3360 0.0000e+00
      8.746    11.0893   3.640518    32.2966 0.0000e+00
      9.035    11.0694   3.640745    32.3162 0.0000e+00
      9.310    11.0542   3.639530    32.3175 0.0000e+00
      9.557    11.0474   3.635165    32.2802 0.0000e+00
      9.781    11.0508   3.630998    32.2360 0.0000e+00
      9.997    11.0619   3.628737    32.2039 0.0000e+00
     10.199    11.0710   3.629577    32.2041 0.0000e+00
     10.406    11.0721   3.631530    32.2223 0.0000e+00
     10.612    11.0688   3.633496    32.2445 0.0000e+00
     10.823    11.0647   3.633001    32.2431 0.0000e+00
     11.026    11.0595   3.631987    32.2376 0.0000e+00
     11.250    11.0446   3.629847    32.2295 0.0000e+00
     11.470    11.0090   3.629108    32.2533 0.0000e+00
     11.695    10.9630   3.629514    32.2977 0.0000e+00
     11.925    10.9265   3.631148    32.3460 0.0000e+00
     12.154    10.9040   3.633730    32.3913 0.0000e+00
     12.390    10.8904   3.634902    32.4148 0.0000e+00
     12.628    10.8782   3.634128    32.4179 0.0000e+00
     12.897    10.8649   3.633467    32.4230 0.0000e+00
     13.170    10.8540   3.633078    32.4286 0.0000e+00
     13.467    10.8454   3.632627    32.4316 0.0000e+00
     13.743    10.8350   3.630679    32.4214 0.0000e+00
     14.027    10.8217   3.624602    32.3727 0.0000e+00
     14.305    10.8057   3.618639    32.3275 0.0000e+00
     14.580    10.7858   3.616240    32.3211 0.0000e+00
     14.830    10.7647   3.615595    32.3333 0.0000e+00
     15.094    10.7342   3.615302    32.3572 0.0000e+00
     15.336    10.6822   3.614523    32.3954 0.0000e+00
     15.585    10.6216   3.612764    32.4316 0.0000e+00
     15.834    10.5758   3.611767    32.4623 0.0000e+00
     16.067    10.5492   3.611503    32.4832 0.0000e+00
     16.303    10.5349   3.610328    32.4841 0.0000e+00
     16.531    10.5300   3.608509    32.4702 0.0000e+00
     16.764    10.5290   3.607019    32.4561 0.0000e+00
     16.989    10.5226   3.604398    32.4355 0.0000e+00
     17.218    10.5074   3.602388    32.4288 0.0000e+00
     17.464    10.4829   3.599257    32.4192 0.0000e+00
     17.726    10.4443   3.591618    32.3769 0.0000e+00
     17.993    10.4010   3.584616    32.3451 0.0000e+00
     18.253    10.3713   3.582213    32.3473 0.0000e+00
     18.531    10.3523   3.581741    32.3594 0.0000e+00
     18.809    10.3382   3.581287    32.3672 0.0000e+00
     19.093    10.3271   3.581778    32.3819 0.0000e+00
     19.377    10.3168   3.582439    32.3977 0.0000e+00
     19.653    10.2852   3.581260    32.4139 0.0000e+00
     19.930    10.1923   3.578624    32.4703 0.0000e+00
     20.197    10.0532   3.575226    32.5608 0.0000e+00
     20.450     9.9369   3.570388    32.6165 0.0000e+00
     20.690     9.8665   3.564132    32.6165 0.0000e+00
     20.928     9.8302   3.563110    32.6389 0.0000e+00
     21.143     9.8128   3.562283    32.6461 0.0000e+00
     21.368     9.8047   3.561270    32.6431 0.0000e+00
     21.590     9.7981   3.560443    32.6405 0.0000e+00
     21.807     9.7871   3.559873    32.6446 0.0000e+00
     22.041     9.7721   3.556959    32.6284 0.0000e+00
     22.267     9.7586   3.543445    32.5027 0.0000e+00
     22.496     9.7457   3.522486    32.3007 0.0000e+00
     22.730     9.7277   3.514326    32.2336 0.0000e+00
     22.960     9.7067   3.512594    32.2347 0.0000e+00
     23.178     9.6884   3.512103    32.2460 0.0000e+00
     23.382     9.6698   3.511398    32.2554 0.0000e+00
     23.591     9.6460   3.510602    32.2685 0.0000e+00
     23.800     9.6103   3.511205    32.3067 0.0000e+00
     23.998     9.5650   3.509418    32.3291 0.0000e+00
     24.209     9.5241   3.507220    32.3434 0.0000e+00
     24.416     9.4952   3.506182    32.3587 0.0000e+00
     24.615     9.4756   3.505196    32.3662 0.0000e+00
     24.860     9.4634   3.502943    32.3540 0.0000e+00
     25.144     9.4576   3.500629    32.3354 0.0000e+00
     25.458     9.4506   3.499738    32.3324 0.0000e+00
     25.815     9.4391   3.498071    32.3256 0.0000e+00
     26.195     9.4271   3.495922    32.3142 0.0000e+00
     26.586     9.4141   3.492354    32.2891 0.0000e+00
     26.993     9.3926   3.487818    32.2617 0.0000e+00
     27.370     9.3560   3.484883    32.2644 0.0000e+00
     27.712     9.3061   3.483789    32.2980 0.0000e+00
     28.006     9.2418   3.482962    32.3476 0.0000e+00
     28.246     9.1603   3.482078    32.4123 0.0000e+00
     28.435     9.0801   3.482227    32.4868 0.0000e+00
     28.579     9.0153   3.481376    32.5371 0.0000e+00
     28.683     8.9670   3.479973    32.5667 0.0000e+00
     28.757     8.9283   3.479071    32.5928 0.0000e+00
     28.834     8.8961   3.478166    32.6129 0.0000e+00
     28.917     8.8717   3.476100    32.6138 0.0000e+00
     29.016     8.8532   3.472359    32.5917 0.0000e+00
     29.156     8.8345   3.467689    32.5602 0.0000e+00
     29.356     8.8102   3.462963    32.5331 0.0000e+00
     29.627     8.7856   3.454514    32.4674 0.0000e+00
     29.943     8.7672   3.449419    32.4309 0.0000e+00
     30.301     8.7565   3.445897    32.4038 0.0000e+00
     30.652     8.7493   3.444028    32.3907 0.0000e+00
     31.009     8.7426   3.441902    32.3745 0.0000e+00
     31.378     8.7325   3.439998    32.3636 0.0000e+00
     31.698     8.7106   3.438720    32.3702 0.0000e+00
     31.994     8.6757   3.437724    32.3916 0.0000e+00
     32.258     8.6350   3.436719    32.4182 0.0000e+00
     32.493     8.5870   3.434003    32.4337 0.0000e+00
     32.698     8.5333   3.431928    32.4612 0.0000e+00
     32.880     8.4845   3.430810    32.4943 0.0000e+00
     33.042     8.4445   3.430805    32.5310 0.0000e+00
     33.208     8.4145   3.430308    32.5534 0.0000e+00
     33.388     8.3912   3.429822    32.5698 0.0000e+00
     33.597     8.3630   3.428874    32.5858 0.0000e+00
     33.801     8.3149   3.426633    32.6066 0.0000e+00
     34.026     8.2454   3.422809    32.6305 0.0000e+00
     34.264     8.1795   3.419421    32.6558 0.0000e+00
     34.514     8.1300   3.415796    32.6633 0.0000e+00
     34.770     8.0911   3.410785    32.6463 0.0000e+00
     35.019     8.0580   3.407855    32.6458 0.0000e+00
     35.263     8.0296   3.405256    32.6446 0.0000e+00
     35.517     8.0012   3.403711    32.6545 0.0000e+00
     35.763     7.9724   3.402599    32.6694 0.0000e+00
     36.010     7.9413   3.400404    32.6750 0.0000e+00
     36.281     7.9105   3.396185    32.6586 0.0000e+00
     36.563     7.8855   3.388816    32.6032 0.0000e+00
     36.845     7.8579   3.384962    32.5877 0.0000e+00
     37.138     7.8261   3.382994    32.5962 0.0000e+00
     37.427     7.8013   3.380934    32.5972 0.0000e+00
     37.718     7.7822   3.378723    32.5913 0.0000e+00
     37.993     7.7642   3.377452    32.5944 0.0000e+00
     38.249     7.7469   3.375282    32.5872 0.0000e+00
     38.484     7.7290   3.373414    32.5838 0.0000e+00
     38.695     7.7075   3.371447    32.5827 0.0000e+00
     38.879     7.6805   3.368290    32.5740 0.0000e+00
     39.050     7.6522   3.367463    32.5916 0.0000e+00
     39.204     7.6258   3.365390    32.5940 0.0000e+00
     39.361     7.6023   3.362239    32.5821 0.0000e+00
     39.512     7.5829   3.361227    32.5893 0.0000e+00
     39.683     7.5693   3.360304    32.5920 0.0000e+00
     39.852     7.5607   3.359272    32.5889 0.0000e+00
     40.041     7.5557   3.358204    32.5820 0.0000e+00
     40.246     7.5535   3.356930    32.5703 0.0000e+00
     40.467     7.5526   3.355395    32.5545 0.0000e+00
     40.705     7.5522   3.353214    32.5313 0.0000e+00
     40.963     7.5516   3.351151    32.5095 0.0000e+00
     41.223     7.5517   3.349335    32.4898 0.0000e+00
     41.509     7.5523   3.348112    32.4759 0.0000e+00
     41.794     7.5521   3.347024    32.4643 0.0000e+00
     42.089     7.5505   3.346588    32.4609 0.0000e+00
     42.396     7.5488   3.346455    32.4609 0.0000e+00
     42.720     7.5482   3.346360    32.4603 0.0000e+00
     43.033     7.5468   3.346446    32.4624 0.0000e+00
     43.335     7.5424   3.346629    32.4684 0.0000e+00
     43.640     7.5335   3.346623    32.4765 0.0000e+00
     43.906     7.5218   3.346511    32.4861 0.0000e+00
     44.152     7.5102   3.346575    32.4975 0.0000e+00
     44.388     7.4938   3.346770    32.5149 0.0000e+00
     44.597     7.4680   3.346518    32.5362 0.0000e+00
     44.775     7.4365   3.346234    32.5627 0.0000e+00
     44.950     7.4066   3.345985    32.5880 0.0000e+00
     45.121     7.3792   3.346100    32.6149 0.0000e+00
     45.290     7.3473   3.345851    32.6422 0.0000e+00
     45.450     7.3144   3.345272    32.6669 0.0000e+00
     45.619     7.2885   3.344462    32.6825 0.0000e+00
     45.800     7.2726   3.343247    32.6843 0.0000e+00
     46.003     7.2638   3.342825    32.6879 0.0000e+00
     46.223     7.2577   3.341419    32.6783 0.0000e+00
     46.471     7.2529   3.339014    32.6567 0.0000e+00
     46.736     7.2492   3.336574    32.6336 0.0000e+00
     47.045     7.2464   3.334651    32.6152 0.0000e+00
     47.351     7.2437   3.333610    32.6063 0.0000e+00
     47.664     7.2407   3.330892    32.5795 0.0000e+00
     47.964     7.2347   3.328672    32.5609 0.0000e+00
     48.268     7.2231   3.327355    32.5574 0.0000e+00
     48.555     7.2059   3.326966    32.5693 0.0000e+00
     48.846     7.1871   3.326887    32.5860 0.0000e+00
     49.130     7.1735   3.326407    32.5935 0.0000e+00
     49.408     7.1648   3.326184    32.5992 0.0000e+00
     49.690     7.1592   3.326057    32.6029 0.0000e+00
     49.948     7.1545   3.325961    32.6062 0.0000e+00
     50.216     7.1488   3.325773    32.6094 0.0000e+00
     50.467     7.1429   3.325575    32.6127 0.0000e+00
     50.696     7.1382   3.325102    32.6119 0.0000e+00
     50.913     7.1351   3.323712    32.5996 0.0000e+00
     51.111     7.1334   3.322404    32.5869 0.0000e+00
     51.287     7.1322   3.320706    32.5695 0.0000e+00
     51.451     7.1308   3.320396    32.5673 0.0000e+00
     51.606     7.1296   3.319908    32.5631 0.0000e+00
     51.767     7.1285   3.319851    32.5634 0.0000e+00
     51.949     7.1263   3.319631    32.5630 0.0000e+00
     52.131     7.1230   3.318971    32.5589 0.0000e+00
     52.353     7.1201   3.318531    32.5567 0.0000e+00
     52.611     7.1185   3.318411    32.5568 0.0000e+00
     52.895     7.1178   3.318302    32.5562 0.0000e+00
     53.194     7.1173   3.318267    32.5561 0.0000e+00
     53.505     7.1159   3.318214    32.5567 0.0000e+00
     53.814     7.1135   3.318152    32.5581 0.0000e+00
     54.120     7.1112   3.318067    32.5592 0.0000e+00
     54.420     7.1086   3.318060    32.5615 0.0000e+00
     54.718     7.1055   3.317804    32.5615 0.0000e+00
     55.004     7.0999   3.317419    32.5624 0.0000e+00
     55.293     7.0918   3.317178    32.5673 0.0000e+00
     55.564     7.0853   3.317177    32.5733 0.0000e+00
     55.844     7.0773   3.317206    32.5811 0.0000e+00
     56.119     7.0677   3.317201    32.5900 0.0000e+00
     56.404     7.0594   3.316992    32.5954 0.0000e+00
     56.690     7.0519   3.316814    32.6004 0.0000e+00
     56.970     7.0432   3.316784    32.6082 0.0000e+00
     57.230     7.0326   3.316513    32.6151 0.0000e+00
     57.487     7.0210   3.316348    32.6242 0.0000e+00
     57.729     7.0111   3.315988    32.6295 0.0000e+00
     57.943     7.0045   3.314903    32.6239 0.0000e+00
     58.107     6.9994   3.315041    32.6301 0.0000e+00
     58.265     6.9938   3.314161    32.6257 0.0000e+00
     58.402     6.9874   3.313255    32.6219 0.0000e+00
     58.534     6.9800   3.312940    32.6254 0.0000e+00
     58.658     6.9693   3.312445    32.6300 0.0000e+00
     58.796     6.9575   3.311808    32.6342 0.0000e+00
     58.973     6.9477   3.310971    32.6343 0.0000e+00
     59.186     6.9395   3.310176    32.6333 0.0000e+00
     59.437     6.9329   3.309540    32.6324 0.0000e+00
     59.710     6.9274   3.309436    32.6364 0.0000e+00
     60.013     6.9194   3.309266    32.6420 0.0000e+00
     60.346     6.9067   3.308859    32.6494 0.0000e+00
     60.690     6.8945   3.308418    32.6560 0.0000e+00
     61.028     6.8875   3.308068    32.6587 0.0000e+00
     61.365     6.8838   3.307242    32.6530 0.0000e+00
     61.711     6.8810   3.306337    32.6456 0.0000e+00
     62.025     6.8786   3.306041    32.6445 0.0000e+00
     62.307     6.8767   3.305551    32.6408 0.0000e+00
     62.564     6.8745   3.305222    32.6391 0.0000e+00
     62.809     6.8684   3.304993    32.6423 0.0000e+00
     63.013     6.8562   3.304486    32.6483 0.0000e+00
     63.193     6.8431   3.303068    32.6451 0.0000e+00
     63.364     6.8331   3.302251    32.6456 0.0000e+00
     63.537     6.8246   3.302194    32.6529 0.0000e+00
     63.715     6.8153   3.302239    32.6622 0.0000e+00
     63.903     6.8072   3.301976    32.6669 0.0000e+00
     64.103     6.8019   3.301780    32.6697 0.0000e+00
     64.309     6.7972   3.301712    32.6733 0.0000e+00
     64.514     6.7914   3.301550    32.6770 0.0000e+00
     64.718     6.7862   3.301131    32.6772 0.0000e+00
     64.931     6.7806   3.299746    32.6673 0.0000e+00
     65.145     6.7738   3.298808    32.6633 0.0000e+00
     65.387     6.7676   3.298396    32.6646 0.0000e+00
     65.637     6.7632   3.297971    32.6640 0.0000e+00
     65.906     6.7605   3.297173    32.6577 0.0000e+00
     66.164     6.7591   3.296818    32.6550 0.0000e+00
     66.459     6.7579   3.296716    32.6549 0.0000e+00
     66.746     6.7567   3.296517    32.6537 0.0000e+00
     67.045     6.7554   3.295907    32.6481 0.0000e+00
     67.328     6.7528   3.295705    32.6482 0.0000e+00
     67.605     6.7479   3.295370    32.6491 0.0000e+00
     67.878     6.7413   3.294757    32.6485 0.0000e+00
     68.133     6.7357   3.294413    32.6499 0.0000e+00
     68.362     6.7310   3.294341    32.6535 0.0000e+00
     68.575     6.7265   3.294171    32.6558 0.0000e+00
     68.798     6.7229   3.294154    32.6590 0.0000e+00
     69.011     6.7203   3.294072    32.6604 0.0000e+00
     69.213     6.7184   3.293990    32.6612 0.0000e+00
     69.426     6.7168   3.293955    32.6623 0.0000e+00
     69.653     6.7148   3.293688    32.6611 0.0000e+00
     69.899     6.7117   3.293246    32.6591 0.0000e+00
     70.126     6.7077   3.292625    32.6560 0.0000e+00
     70.367     6.7043   3.292405    32.6567 0.0000e+00
     70.620     6.7015   3.292244    32.6575 0.0000e+00
     70.856     6.6992   3.291853    32.6552 0.0000e+00
     71.100     6.6963   3.291723    32.6565 0.0000e+00
     71.345     6.6927   3.291625    32.6587 0.0000e+00
     71.576     6.6880   3.291544    32.6622 0.0000e+00
     71.824     6.6828   3.291450    32.6660 0.0000e+00
     72.075     6.6779   3.291308    32.6690 0.0000e+00
     72.333     6.6737   3.291099    32.6706 0.0000e+00
     72.592     6.6706   3.290723    32.6692 0.0000e+00
     72.848     6.6670   3.290581    32.6710 0.0000e+00
     73.114     6.6615   3.290411    32.6742 0.0000e+00
     73.361     6.6555   3.290416    32.6799 0.0000e+00
     73.598     6.6500   3.290154    32.6822 0.0000e+00
     73.820     6.6416   3.289917    32.6875 0.0000e+00
     74.042     6.6293   3.289407    32.6935 0.0000e+00
     74.249     6.6175   3.289035    32.7006 0.0000e+00
     74.440     6.6090   3.288743    32.7054 0.0000e+00
     74.626     6.6030   3.288446    32.7077 0.0000e+00
     74.820     6.5962   3.288366    32.7133 0.0000e+00
     74.997     6.5847   3.288076    32.7210 0.0000e+00
     75.173     6.5713   3.287490    32.7272 0.0000e+00
     75.366     6.5615   3.287011    32.7312 0.0000e+00
     75.564     6.5556   3.286822    32.7347 0.0000e+00
     75.774     6.5524   3.286034    32.7290 0.0000e+00
     76.003     6.5505   3.284775    32.7168 0.0000e+00
     76.254     6.5491   3.284131    32.7109 0.0000e+00
     76.521     6.5482   3.283898    32.7090 0.0000e+00
     76.798     6.5475   3.283702    32.7074 0.0000e+00
     77.105     6.5470   3.283375    32.7041 0.0000e+00
     77.428     6.5465   3.282241    32.6919 0.0000e+00
     77.775     6.5453   3.281138    32.6807 0.0000e+00
     78.113     6.5438   3.280834    32.6786 0.0000e+00
     78.450     6.5427   3.280720    32.6783 0.0000e+00
     78.779     6.5416   3.280694    32.6789 0.0000e+00
     79.078     6.5402   3.280637    32.6795 0.0000e+00
     79.365     6.5390   3.280595    32.6800 0.0000e+00
     79.604     6.5374   3.280578    32.6812 0.0000e+00
     79.826     6.5353   3.280569    32.6830 0.0000e+00
     80.027     6.5333   3.280662    32.6859 0.0000e+00
     80.206     6.5317   3.280468    32.6852 0.0000e+00
     80.368     6.5302   3.280425    32.6861 0.0000e+00
     80.521     6.5287   3.280272    32.6857 0.0000e+00
     80.666     6.5263   3.280238    32.6876 0.0000e+00
     80.817     6.5228   3.280180    32.6902 0.0000e+00
     80.979     6.5195   3.280019    32.6915 0.0000e+00
     81.172     6.5172   3.280057    32.6940 0.0000e+00
     81.387     6.5156   3.279911    32.6938 0.0000e+00
     81.623     6.5119   3.279729    32.6953 0.0000e+00
     81.876     6.5056   3.279581    32.6995 0.0000e+00
     82.133     6.4995   3.279545    32.7049 0.0000e+00
     82.393     6.4956   3.279430    32.7072 0.0000e+00
     82.653     6.4923   3.279362    32.7095 0.0000e+00
     82.919     6.4890   3.279246    32.7112 0.0000e+00
     83.161     6.4860   3.278820    32.7093 0.0000e+00
     83.405     6.4838   3.278636    32.7092 0.0000e+00
     83.656     6.4822   3.278553    32.7097 0.0000e+00
     83.907     6.4808   3.278568    32.7111 0.0000e+00
     84.194     6.4801   3.278279    32.7084 0.0000e+00
     84.493     6.4799   3.277591    32.7009 0.0000e+00
     84.802     6.4797   3.277289    32.6976 0.0000e+00
     85.126     6.4795   3.277232    32.6970 0.0000e+00
     85.459     6.4792   3.277135    32.6960 0.0000e+00
     85.799     6.4778   3.276936    32.6950 0.0000e+00
     86.121     6.4758   3.276778    32.6950 0.0000e+00
     86.436     6.4741   3.276730    32.6960 0.0000e+00
     86.723     6.4722   3.276725    32.6976 0.0000e+00
     86.973     6.4704   3.276657    32.6984 0.0000e+00
     87.182     6.4688   3.276689    32.7002 0.0000e+00
     87.367     6.4674   3.276738    32.7020 0.0000e+00
     87.518     6.4655   3.276726    32.7036 0.0000e+00
     87.642     6.4632   3.276708    32.7056 0.0000e+00
     87.750     6.4618   3.276694    32.7067 0.0000e+00
     87.861     6.4610   3.276449    32.7047 0.0000e+00
     87.999     6.4607   3.276187    32.7020 0.0000e+00
     88.159     6.4606   3.276150    32.7016 0.0000e+00
     88.341     6.4597   3.275949    32.7002 0.0000e+00
     88.556     6.4582   3.275855    32.7005 0.0000e+00
     88.838     6.4568   3.275726    32.7003 0.0000e+00
     89.134     6.4554   3.275696    32.7011 0.0000e+00
     89.436     6.4542   3.275593    32.7010 0.0000e+00
     89.747     6.4535   3.275368    32.6990 0.0000e+00
     90.066     6.4531   3.275370    32.6993 0.0000e+00
     90.370     6.4533   3.275371    32.6990 0.0000e+00
     90.645     6.4536   3.275351    32.6983 0.0000e+00
     90.888     6.4540   3.275444    32.6988 0.0000e+00
     91.107     6.4544   3.275331    32.6971 0.0000e+00
     91.309     6.4546   3.275143    32.6947 0.0000e+00
     91.498     6.4548   3.275138    32.6944 0.0000e+00
     91.665     6.4551   3.275010    32.6926 0.0000e+00
     91.862     6.4554   3.274942    32.6915 0.0000e+00
     92.084     6.4555   3.274943    32.6913 0.0000e+00
     92.324     6.4554   3.274971    32.6916 0.0000e+00
     92.577     6.4551   3.275025    32.6923 0.0000e+00
     92.843     6.4548   3.275145    32.6938 0.0000e+00
     93.117     6.4545   3.275253    32.6952 0.0000e+00
     93.381     6.4544   3.275254    32.6952 0.0000e+00
     93.616     6.4545   3.275187    32.6942 0.0000e+00
     93.845     6.4546   3.275290    32.6951 0.0000e+00
     94.064     6.4545   3.275322    32.6955 0.0000e+00
     94.280     6.4546   3.275420    32.6964 0.0000e+00
     94.484     6.4550   3.275389    32.6955 0.0000e+00
     94.670     6.4556   3.275445    32.6955 0.0000e+00
     94.875     6.4560   3.275346    32.6939 0.0000e+00
     95.079     6.4561   3.275378    32.6941 0.0000e+00
     95.297     6.4560   3.275372    32.6940 0.0000e+00
     95.527     6.4562   3.275382    32.6938 0.0000e+00
     95.772     6.4565   3.275431    32.6940 0.0000e+00
     96.045     6.4569   3.275511    32.6943 0.0000e+00
     96.300     6.4573   3.275532    32.6940 0.0000e+00
     96.557     6.4573   3.275565    32.6943 0.0000e+00
     96.797     6.4571   3.275609    32.6949 0.0000e+00
     97.030     6.4556   3.275718    32.6974 0.0000e+00
     97.252     6.4530   3.275730    32.6999 0.0000e+00
     97.463     6.4507   3.275654    32.7012 0.0000e+00
     97.659     6.4488   3.275643    32.7028 0.0000e+00
     97.854     6.4471   3.275672    32.7046 0.0000e+00
     98.051     6.4439   3.275602    32.7068 0.0000e+00
     98.242     6.4380   3.275678    32.7132 0.0000e+00
     98.440     6.4310   3.275700    32.7201 0.0000e+00
     98.631     6.4249   3.275677    32.7256 0.0000e+00
     98.831     6.4199   3.275655    32.7300 0.0000e+00
     99.041     6.4157   3.275538    32.7327 0.0000e+00
     99.253     6.4127   3.275397    32.7339 0.0000e+00
     99.468     6.4105   3.275329    32.7351 0.0000e+00
     99.696     6.4081   3.275268    32.7367 0.0000e+00
     99.930     6.4053   3.275202    32.7385 0.0000e+00
    100.171     6.4023   3.275110    32.7402 0.0000e+00
    100.405     6.3994   3.274485    32.7360 0.0000e+00
    100.642     6.3976   3.273917    32.7313 0.0000e+00
    100.888     6.3968   3.273611    32.7286 0.0000e+00
    101.130     6.3967   3.273464    32.7269 0.0000e+00
    101.377     6.3962   3.273216    32.7245 0.0000e+00
    101.645     6.3961   3.273105    32.7233 0.0000e+00
    101.909     6.3963   3.273036    32.7222 0.0000e+00
    102.196     6.3965   3.272858    32.7199 0.0000e+00
    102.489     6.3970   3.272639    32.7168 0.0000e+00
    102.767     6.3972   3.272459    32.7145 0.0000e+00
    103.059     6.3967   3.272285    32.7129 0.0000e+00
    103.343     6.3954   3.272192    32.7130 0.0000e+00
    103.615     6.3932   3.272242    32.7155 0.0000e+00
    103.859     6.3901   3.272361    32.7197 0.0000e+00
    104.076     6.3866   3.272231    32.7215 0.0000e+00
    104.265     6.3828   3.272229    32.7250 0.0000e+00
    104.443     6.3795   3.272316    32.7291 0.0000e+00
    104.587     6.3768   3.272282    32.7312 0.0000e+00
    104.724     6.3746   3.272323    32.7337 0.0000e+00
    104.851     6.3729   3.272390    32.7360 0.0000e+00
    104.995     6.3709   3.272289    32.7368 0.0000e+00
    105.153     6.3684   3.272178    32.7379 0.0000e+00
    105.326     6.3651   3.272033    32.7393 0.0000e+00
    105.519     6.3616   3.271712    32.7391 0.0000e+00
    105.743     6.3591   3.271553    32.7396 0.0000e+00
    105.972     6.3576   3.271306    32.7382 0.0000e+00
    106.203     6.3569   3.271241    32.7380 0.0000e+00
    106.443     6.3565   3.271163    32.7374 0.0000e+00
    106.667     6.3562   3.271147    32.7374 0.0000e+00
    106.904     6.3561   3.271155    32.7375 0.0000e+00
    107.144     6.3561   3.271110    32.7369 0.0000e+00
    107.395     6.3560   3.271088    32.7366 0.0000e+00
    107.665     6.3559   3.270942    32.7349 0.0000e+00
    107.925     6.3548   3.270813    32.7344 0.0000e+00
    108.187     6.3531   3.270895    32.7369 0.0000e+00
    108.444     6.3515   3.270877    32.7381 0.0000e+00
    108.704     6.3499   3.270893    32.7397 0.0000e+00
    108.953     6.3485   3.270899    32.7410 0.0000e+00
    109.208     6.3468   3.270893    32.7424 0.0000e+00
    109.448     6.3455   3.270895    32.7436 0.0000e+00
    109.697     6.3450   3.270891    32.7439 0.0000e+00
    109.950     6.3448   3.270940    32.7445 0.0000e+00
    110.211     6.3449   3.270909    32.7439 0.0000e+00
    110.453     6.3447   3.270831    32.7431 0.0000e+00
    110.699     6.3439   3.270577    32.7410 0.0000e+00
    110.928     6.3428   3.270538    32.7415 0.0000e+00
    111.154     6.3418   3.270467    32.7415 0.0000e+00
    111.359     6.3413   3.270492    32.7422 0.0000e+00
    111.572     6.3412   3.270392    32.7411 0.0000e+00
    111.787     6.3415   3.270313    32.7398 0.0000e+00
    111.998     6.3421   3.270432    32.7404 0.0000e+00
    112.222     6.3426   3.270453    32.7401 0.0000e+00
    112.440     6.3429   3.270530    32.7406 0.0000e+00
    112.677     6.3429   3.270548    32.7406 0.0000e+00
    112.933     6.3420   3.270419    32.7399 0.0000e+00
    113.210     6.3409   3.270327    32.7398 0.0000e+00
    113.498     6.3401   3.270328    32.7405 0.0000e+00
    113.781     6.3388   3.270327    32.7416 0.0000e+00
    114.031     6.3361   3.270344    32.7443 0.0000e+00
    114.264     6.3323   3.270436    32.7488 0.0000e+00
    114.478     6.3290   3.270484    32.7524 0.0000e+00
    114.664     6.3264   3.270541    32.7555 0.0000e+00
    114.822     6.3233   3.270570    32.7587 0.0000e+00
    114.946     6.3196   3.270542    32.7619 0.0000e+00
    115.066     6.3161   3.270324    32.7628 0.0000e+00
    115.186     6.3133   3.270338    32.7655 0.0000e+00
    115.319     6.3107   3.270268    32.7672 0.0000e+00
    115.454     6.3067   3.270191    32.7701 0.0000e+00
    115.632     6.3004   3.269828    32.7721 0.0000e+00
    115.847     6.2933   3.269472    32.7748 0.0000e+00
    116.109     6.2876   3.269299    32.7783 0.0000e+00
    116.395     6.2838   3.269181    32.7805 0.0000e+00
    116.699     6.2810   3.268998    32.7810 0.0000e+00
    117.027     6.2791   3.268618    32.7784 0.0000e+00
    117.365     6.2780   3.268428    32.7772 0.0000e+00
    117.693     6.2765   3.268329    32.7774 0.0000e+00
    118.015     6.2747   3.268165    32.7772 0.0000e+00
    118.326     6.2732   3.267792    32.7743 0.0000e+00
    118.626     6.2720   3.267262    32.7694 0.0000e+00
    118.896     6.2708   3.266742    32.7647 0.0000e+00
    119.154     6.2694   3.266462    32.7628 0.0000e+00
    119.409     6.2685   3.266394    32.7628 0.0000e+00
    119.655     6.2680   3.266279    32.7619 0.0000e+00
    119.875     6.2680   3.266217    32.7611 0.0000e+00
    120.079     6.2680   3.266219    32.7610 0.0000e+00
    120.270     6.2675   3.266123    32.7603 0.0000e+00
    120.448     6.2665   3.265945    32.7592 0.0000e+00
    120.605     6.2653   3.265908    32.7599 0.0000e+00
    120.743     6.2640   3.265799    32.7598 0.0000e+00
    120.883     6.2628   3.265782    32.7607 0.0000e+00
    121.027     6.2620   3.265596    32.7594 0.0000e+00
    121.169     6.2613   3.265623    32.7603 0.0000e+00
    121.302     6.2602   3.265631    32.7614 0.0000e+00
    121.440     6.2585   3.265632    32.7629 0.0000e+00
    121.598     6.2560   3.265670    32.7657 0.0000e+00
    121.780     6.2531   3.265537    32.7669 0.0000e+00
    121.982     6.2510   3.265417    32.7675 0.0000e+00
    122.210     6.2503   3.265334    32.7671 0.0000e+00
    122.459     6.2500   3.265251    32.7664 0.0000e+00
    122.745     6.2494   3.265226    32.7665 0.0000e+00
    123.053     6.2487   3.265211    32.7669 0.0000e+00
    123.371     6.2474   3.265172    32.7676 0.0000e+00
    123.701     6.2450   3.265100    32.7689 0.0000e+00
    124.021     6.2425   3.264957    32.7696 0.0000e+00
    124.350     6.2411   3.264784    32.7688 0.0000e+00
    124.678     6.2410   3.264524    32.7659 0.0000e+00
    124.993     6.2410   3.264445    32.7649 0.0000e+00
    125.293     6.2403   3.264531    32.7663 0.0000e+00
    125.574     6.2395   3.264561    32.7673 0.0000e+00
    125.827     6.2387   3.264498    32.7673 0.0000e+00
    126.056     6.2378   3.264517    32.7682 0.0000e+00
    126.262     6.2365   3.264353    32.7675 0.0000e+00
    126.456     6.2353   3.264124    32.7661 0.0000e+00
    126.633     6.2345   3.263941    32.7647 0.0000e+00
    126.800     6.2333   3.263963    32.7660 0.0000e+00
    126.964     6.2317   3.264069    32.7687 0.0000e+00
    127.128     6.2299   3.264074    32.7704 0.0000e+00
    127.281     6.2266   3.263996    32.7726 0.0000e+00
    127.446     6.2224   3.263899    32.7755 0.0000e+00
    127.632     6.2195   3.263796    32.7771 0.0000e+00
    127.843     6.2179   3.263782    32.7783 0.0000e+00
    128.062     6.2172   3.263657    32.7775 0.0000e+00
    128.304     6.2172   3.263607    32.7768 0.0000e+00
    128.564     6.2171   3.263546    32.7761 0.0000e+00
    128.857     6.2161   3.263505    32.7765 0.0000e+00
    129.148     6.2149   3.263380    32.7761 0.0000e+00
    129.432     6.2144   3.263277    32.7753 0.0000e+00
    129.694     6.2139   3.262976    32.7723 0.0000e+00
    129.960     6.2128   3.262566    32.7687 0.0000e+00
    130.215     6.2114   3.262579    32.7701 0.0000e+00
    130.455     6.2094   3.262511    32.7711 0.0000e+00
    130.688     6.2066   3.262537    32.7740 0.0000e+00
    130.912     6.2042   3.262573    32.7766 0.0000e+00
    131.145     6.2022   3.262615    32.7789 0.0000e+00
    131.360     6.1998   3.262438    32.7791 0.0000e+00
    131.582     6.1964   3.262292    32.7807 0.0000e+00
    131.804     6.1931   3.262370    32.7846 0.0000e+00
    132.034     6.1913   3.262309    32.7855 0.0000e+00
    132.263     6.1906   3.262248    32.7854 0.0000e+00
    132.516     6.1902   3.262122    32.7843 0.0000e+00
    132.780     6.1899   3.262005    32.7831 0.0000e+00
    133.055     6.1897   3.261707    32.7799 0.0000e+00
    133.331     6.1900   3.261619    32.7785 0.0000e+00
    133.610     6.1904   3.261557    32.7773 0.0000e+00
    133.897     6.1904   3.261354    32.7749 0.0000e+00
    134.191     6.1901   3.261067    32.7718 0.0000e+00
    134.460     6.1895   3.260782    32.7691 0.0000e+00
    134.728     6.1886   3.260858    32.7707 0.0000e+00
    134.957     6.1878   3.260884    32.7716 0.0000e+00
    135.175     6.1867   3.260903    32.7728 0.0000e+00
    135.379     6.1854   3.260857    32.7734 0.0000e+00
    135.549     6.1842   3.260865    32.7746 0.0000e+00
    135.696     6.1834   3.260917    32.7759 0.0000e+00
    135.847     6.1832   3.260992    32.7768 0.0000e+00
    136.002     6.1832   3.260937    32.7761 0.0000e+00
    136.171     6.1833   3.260898    32.7755 0.0000e+00
    136.346     6.1831   3.260891    32.7756 0.0000e+00
    136.531     6.1828   3.260736    32.7740 0.0000e+00
    136.750     6.1822   3.260744    32.7746 0.0000e+00
    136.996     6.1815   3.260664    32.7743 0.0000e+00
    137.247     6.1808   3.260551    32.7735 0.0000e+00
    137.516     6.1805   3.260507    32.7732 0.0000e+00
    137.795     6.1805   3.260502    32.7730 0.0000e+00
    138.071     6.1806   3.260511    32.7729 0.0000e+00
    138.346     6.1805   3.260581    32.7736 0.0000e+00
    138.628     6.1803   3.260596    32.7739 0.0000e+00
    138.887     6.1803   3.260550    32.7732 0.0000e+00
    139.138     6.1801   3.260502    32.7728 0.0000e+00
    139.378     6.1800   3.260493    32.7726 0.0000e+00
    139.622     6.1799   3.260436    32.7720 0.0000e+00
    139.855     6.1799   3.260386    32.7713 0.0000e+00
    140.099     6.1798   3.260291    32.7702 0.0000e+00
    140.341     6.1797   3.259991    32.7669 0.0000e+00
    140.596     6.1795   3.260491    32.7725 0.0000e+00
    140.840     6.1793   3.260457    32.7722 0.0000e+00
    141.086     6.1792   3.260452    32.7721 0.0000e+00
    141.328     6.1791   3.260501    32.7726 0.0000e+00
    141.559     6.1790   3.260479    32.7724 0.0000e+00
    141.792     6.1791   3.260459    32.7720 0.0000e+00
    142.022     6.1792   3.260512    32.7723 0.0000e+00
    142.236     6.1793   3.260511    32.7721 0.0000e+00
    142.455     6.1793   3.260498    32.7719 0.0000e+00
    142.662     6.1791   3.260503    32.7720 0.0000e+00
    142.877     6.1790   3.260520    32.7722 0.0000e+00
    143.096     6.1791   3.260513    32.7719 0.0000e+00
    143.316     6.1791   3.260485    32.7715 0.0000e+00
    143.536     6.1786   3.260505    32.7721 0.0000e+00
    143.764     6.1776   3.260505    32.7730 0.0000e+00
    143.993     6.1768   3.260508    32.7737 0.0000e+00
    144.210     6.1764   3.260528    32.7742 0.0000e+00
    144.428     6.1760   3.260552    32.7747 0.0000e+00
    144.632     6.1750   3.260558    32.7756 0.0000e+00
    144.831     6.1737   3.260547    32.7767 0.0000e+00
    145.018     6.1725   3.260564    32.7779 0.0000e+00
    145.204     6.1709   3.260596    32.7797 0.0000e+00
    145.397     6.1672   3.260576    32.7830 0.0000e+00
    145.602     6.1592   3.260488    32.7896 0.0000e+00
    145.828     6.1485   3.260339    32.7982 0.0000e+00
    146.065     6.1399   3.260291    32.8058 0.0000e+00
    146.312     6.1350   3.260299    32.8105 0.0000e+00
    146.571     6.1311   3.260283    32.8140 0.0000e+00
    146.835     6.1272   3.260141    32.8160 0.0000e+00
    147.106     6.1232   3.260106    32.8194 0.0000e+00
    147.377     6.1204   3.259951    32.8202 0.0000e+00
    147.641     6.1191   3.259952    32.8214 0.0000e+00
    147.918     6.1178   3.259626    32.8188 0.0000e+00
    148.182     6.1165   3.258883    32.8117 0.0000e+00
    148.426     6.1158   3.257998    32.8024 0.0000e+00
    148.648     6.1152   3.257570    32.7980 0.0000e+00
    148.845     6.1148   3.257679    32.7996 0.0000e+00
    149.021     6.1143   3.257447    32.7974 0.0000e+00
    149.180     6.1129   3.257223    32.7961 0.0000e+00
    149.331     6.1116   3.256883    32.7935 0.0000e+00
    149.476     6.1113   3.256767    32.7924 0.0000e+00
    149.642     6.1107   3.256830    32.7937 0.0000e+00
    149.804     6.1094   3.256744    32.7939 0.0000e+00
    149.966     6.1081   3.256605    32.7935 0.0000e+00
    150.144     6.1071   3.256613    32.7945 0.0000e+00
    150.323     6.1067   3.256587    32.7945 0.0000e+00
    150.516     6.1067   3.256563    32.7941 0.0000e+00
    150.722     6.1067   3.256644    32.7949 0.0000e+00
    150.951     6.1060   3.256401    32.7928 0.0000e+00
    151.208     6.1044   3.256284    32.7929 0.0000e+00
    151.477     6.1028   3.256449    32.7961 0.0000e+00
    151.748     6.1019   3.256350    32.7958 0.0000e+00
    152.034     6.1015   3.256225    32.7946 0.0000e+00
    152.313     6.1012   3.256153    32.7940 0.0000e+00
    152.591     6.1008   3.256125    32.7939 0.0000e+00
    152.850     6.0999   3.256165    32.7951 0.0000e+00
    153.103     6.0987   3.256161    32.7961 0.0000e+00
    153.327     6.0979   3.256202    32.7972 0.0000e+00
    153.545     6.0973   3.256199    32.7976 0.0000e+00
    153.744     6.0969   3.255966    32.7953 0.0000e+00
    153.922     6.0967   3.255900    32.7947 0.0000e+00
    154.091     6.0966   3.255890    32.7946 0.0000e+00
    154.253     6.0965   3.255902    32.7948 0.0000e+00
    154.415     6.0962   3.255911    32.7951 0.0000e+00
    154.590     6.0957   3.255894    32.7953 0.0000e+00
    154.774     6.0955   3.255819    32.7945 0.0000e+00
    154.989     6.0956   3.255681    32.7928 0.0000e+00
    155.207     6.0956   3.255704    32.7930 0.0000e+00
    155.433     6.0953   3.255690    32.7930 0.0000e+00
    155.657     6.0950   3.255709    32.7934 0.0000e+00
    155.879     6.0951   3.255667    32.7927 0.0000e+00
    156.108     6.0952   3.255694    32.7928 0.0000e+00
    156.332     6.0951   3.255695    32.7928 0.0000e+00
    156.545     6.0950   3.255648    32.7923 0.0000e+00
    156.775     6.0947   3.255631    32.7922 0.0000e+00
    156.991     6.0946   3.255635    32.7923 0.0000e+00
    157.214     6.0946   3.255699    32.7929 0.0000e+00
    157.434     6.0943   3.255681    32.7929 0.0000e+00
    157.638     6.0939   3.255669    32.7930 0.0000e+00
    157.840     6.0937   3.255629    32.7927 0.0000e+00
    158.040     6.0936   3.255675    32.7932 0.0000e+00
    158.244     6.0935   3.255708    32.7936 0.0000e+00
    158.435     6.0934   3.255711    32.7936 0.0000e+00
    158.648     6.0932   3.255688    32.7934 0.0000e+00
    158.863     6.0931   3.255679    32.7933 0.0000e+00
    159.103     6.0929   3.255704    32.7937 0.0000e+00
    159.349     6.0927   3.255721    32.7939 0.0000e+00
    159.584     6.0925   3.255661    32.7933 0.0000e+00
    159.817     6.0924   3.255670    32.7934 0.0000e+00
    160.076     6.0926   3.255700    32.7934 0.0000e+00
    160.327     6.0926   3.255694    32.7933 0.0000e+00
    160.595     6.0922   3.255722    32.7938 0.0000e+00
    160.855     6.0917   3.255707    32.7940 0.0000e+00
    161.108     6.0911   3.255706    32.7945 0.0000e+00
    161.343     6.0905   3.255706    32.7949 0.0000e+00
    161.565     6.0897   3.255705    32.7956 0.0000e+00
    161.778     6.0888   3.255700    32.7963 0.0000e+00
    161.991     6.0878   3.255687    32.7970 0.0000e+00
    162.188     6.0861   3.255698    32.7987 0.0000e+00
    162.372     6.0828   3.255702    32.8018 0.0000e+00
    162.541     6.0798   3.255736    32.8050 0.0000e+00
    162.708     6.0784   3.255703    32.8059 0.0000e+00
    162.867     6.0773   3.255672    32.8066 0.0000e+00
    163.031     6.0762   3.255587    32.8066 0.0000e+00
    163.198     6.0750   3.255621    32.8080 0.0000e+00
    163.386     6.0738   3.255536    32.8082 0.0000e+00
    163.580     6.0728   3.255430    32.8079 0.0000e+00
    163.795     6.0720   3.255384    32.8080 0.0000e+00
    164.008     6.0715   3.255322    32.8077 0.0000e+00
    164.240     6.0718   3.254943    32.8031 0.0000e+00
    164.480     6.0718   3.254787    32.8012 0.0000e+00
    164.715     6.0714   3.254857    32.8023 0.0000e+00
    164.953     6.0708   3.254805    32.8021 0.0000e+00
    165.186     6.0710   3.254701    32.8007 0.0000e+00
    165.419     6.0721   3.254638    32.7988 0.0000e+00
    165.638     6.0729   3.254604    32.7975 0.0000e+00
    165.845     6.0723   3.254560    32.7975 0.0000e+00
    166.042     6.0711   3.254517    32.7981 0.0000e+00
    166.246     6.0702   3.254494    32.7986 0.0000e+00
    166.439     6.0696   3.254611    32.8004 0.0000e+00
    166.628     6.0690   3.254656    32.8014 0.0000e+00
    166.809     6.0681   3.254498    32.8004 0.0000e+00
    166.978     6.0662   3.254467    32.8018 0.0000e+00
    167.144     6.0636   3.254514    32.8048 0.0000e+00
    167.302     6.0615   3.254637    32.8081 0.0000e+00
    167.470     6.0603   3.254728    32.8102 0.0000e+00
    167.643     6.0598   3.254574    32.8089 0.0000e+00
    167.830     6.0600   3.254441    32.8071 0.0000e+00
    168.043     6.0608   3.254429    32.8061 0.0000e+00
    168.272     6.0617   3.254476    32.8056 0.0000e+00
    168.538     6.0621   3.254375    32.8040 0.0000e+00
    168.830     6.0622   3.254415    32.8042 0.0000e+00
    169.127     6.0621   3.254220    32.8020 0.0000e+00
    169.451     6.0612   3.253976    32.8000 0.0000e+00
    169.766     6.0600   3.253943    32.8006 0.0000e+00
    170.066     6.0591   3.253925    32.8011 0.0000e+00
    170.334     6.0585   3.253906    32.8014 0.0000e+00
    170.576     6.0579   3.254033    32.8032 0.0000e+00
    170.774     6.0568   3.254124    32.8052 0.0000e+00
    170.927     6.0551   3.254186    32.8075 0.0000e+00
    171.057     6.0529   3.254168    32.8093 0.0000e+00
    171.155     6.0508   3.254122    32.8108 0.0000e+00
    171.248     6.0492   3.254143    32.8126 0.0000e+00
    171.344     6.0482   3.254049    32.8124 0.0000e+00
    171.466     6.0478   3.253872    32.8108 0.0000e+00
    171.608     6.0478   3.253910    32.8111 0.0000e+00
    171.781     6.0482   3.253877    32.8103 0.0000e+00
    171.961     6.0486   3.253895    32.8100 0.0000e+00
    172.165     6.0489   3.253792    32.8085 0.0000e+00
    172.375     6.0491   3.253675    32.8069 0.0000e+00
    172.595     6.0491   3.253500    32.8048 0.0000e+00
    172.806     6.0492   3.253389    32.8034 0.0000e+00
    173.008     6.0495   3.253313    32.8021 0.0000e+00
    173.205     6.0500   3.253275    32.8011 0.0000e+00
    173.391     6.0501   3.253321    32.8015 0.0000e+00
    173.577     6.0498   3.253314    32.8016 0.0000e+00
    173.766     6.0494   3.253215    32.8008 0.0000e+00
    173.917     6.0488   3.253435    32.8037 0.0000e+00
    173.986     6.0482   3.253431    32.8042 0.0000e+00
    173.974     6.0473   3.253414    32.8049 0.0000e+00
    173.941     6.0468   3.253414    32.8054 0.0000e+00
    173.948 -9.990e-29   3.253479 -9.990e-29 0.0000e+00
    173.986 -9.990e-29   3.253514 -9.990e-29 0.0000e+00
    174.021 -9.990e-29   3.253588 -9.990e-29 0.0000e+00
    174.008 -9.990e-29   3.253549 -9.990e-29 0.0000e+00
    173.970 -9.990e-29   3.253509 -9.990e-29 0.0000e+00
    173.943 -9.990e-29   3.253474 -9.990e-29 0.0000e+00
    173.943 -9.990e-29   3.253396 -9.990e-29 0.0000e+00
    173.955 -9.990e-29   3.253394 -9.990e-29 0.0000e+00
    173.964 -9.990e-29   3.253306 -9.990e-29 0.0000e+00
    173.968 -9.990e-29   3.253219 -9.990e-29 0.0000e+00
    173.982 -9.990e-29   3.253254 -9.990e-29 0.0000e+00
    174.008 -9.990e-29 -9.990e-29 -9.990e-29 0.0000e+00
    174.035 -9.990e-29 -9.990e-29 -9.990e-29 0.0000e+00
    174.053 -9.990e-29 -9.990e-29 -9.990e-29 0.0000e+00
